Fs,100
Logging Type,1
Initialization time,-1
Waiting time,-1
ax,ay,az,gx,gy,gz
2508,-604,14684,-429,140,-53
2744,-692,14772,-433,168,-75
2616,-692,14872,-439,130,-63
2648,-628,14736,-436,139,-40
2700,-588,14752,-425,135,-67
2700,-648,14824,-430,116,-71
2644,-636,14796,-438,157,-65
2616,-556,14756,-440,133,-56
2620,-660,14792,-430,123,-93
2728,-596,14704,-431,137,-65
2620,-704,14728,-448,140,-51
2636,-596,14976,-428,158,-78
2628,-600,14808,-428,125,-91
2728,-536,14768,-431,130,-62
2660,-632,14808,-437,150,-63
2588,-628,14856,-446,161,-73
2644,-536,14816,-441,123,-89
2692,-600,14748,-444,136,-58
2692,-636,14744,-432,136,-49
2624,-712,14744,-450,166,-44
2612,-612,14764,-421,171,-61
2616,-604,14736,-451,140,-61
2580,-660,14748,-424,158,-55
2592,-648,14692,-425,137,-63
2672,-640,14780,-439,137,-84
2636,-688,14772,-429,148,-67
2584,-660,14844,-429,142,-77
2600,-568,14768,-433,147,-75
2628,-600,14728,-444,154,-57
2580,-668,14704,-436,151,-50
2612,-616,14836,-445,139,-84
2572,-608,14856,-438,147,-65
2600,-660,14748,-438,160,-72
2596,-640,14760,-450,132,-72
2536,-624,14808,-439,164,-68
2700,-628,14732,-432,153,-76
2636,-620,14732,-442,154,-72
2648,-644,14792,-439,147,-53
2588,-652,14800,-438,134,-64
2636,-620,14784,-445,109,-56
2644,-652,14780,-432,154,-54
2704,-640,14812,-431,133,-67
2700,-604,14684,-424,148,-60
2652,-544,14564,-435,152,-53
2680,-612,14808,-445,159,-59
2596,-724,14828,-453,137,-78
2556,-708,14728,-447,139,-62
2528,-648,14768,-444,128,-59
2628,-700,14796,-420,129,-91
2700,-688,14852,-436,139,-61
2656,-660,14888,-443,146,-57
2648,-688,14792,-426,144,-92
2672,-676,14800,-437,153,-71
2624,-584,14848,-416,156,-73
2708,-624,14720,-434,124,-69
2660,-676,14820,-436,142,-48
2632,-640,14744,-435,137,-55
2704,-708,14752,-443,116,-59
2644,-612,14824,-432,143,-93
2724,-684,14788,-417,137,-70
2636,-612,14732,-441,140,-59
2592,-716,14840,-428,138,-66
2664,-648,14764,-436,143,-56
2652,-676,14844,-448,133,-75
2684,-652,14752,-442,152,-26
2728,-664,14760,-435,134,-68
2552,-652,14744,-446,142,-53
2636,-656,14824,-450,153,-54
2548,-692,14804,-435,134,-63
2648,-668,14836,-447,144,-73
2636,-632,14780,-430,113,-59
2592,-616,14812,-428,134,-59
2644,-664,14768,-427,145,-76
2680,-604,14760,-426,129,-67
2728,-576,14696,-462,130,-67
2636,-688,14780,-423,136,-75
2632,-636,14868,-438,167,-74
2636,-576,14792,-428,144,-67
2580,-664,14872,-431,131,-61
2712,-584,14844,-440,147,-56
2672,-740,14704,-445,150,-76
2596,-644,14692,-442,134,-65
2692,-592,14660,-439,165,-85
2592,-720,14764,-436,159,-63
2636,-640,14836,-411,166,-49
2704,-588,14788,-439,117,-47
2736,-696,14800,-440,141,-48
2556,-672,14748,-430,138,-62
2608,-680,14724,-430,112,-65
2728,-612,14728,-430,126,-59
2716,-580,14788,-444,162,-51
2768,-608,14848,-421,140,-57
2632,-512,14776,-439,145,-70
2672,-628,14816,-439,145,-57
2664,-676,14792,-447,146,-70
2540,-620,14948,-418,163,-66
2600,-536,14804,-431,145,-57
2660,-700,14800,-439,125,-80
2640,-712,14880,-438,146,-50
2664,-592,14836,-441,141,-62
2692,-612,14748,-441,131,-57
2660,-704,14900,-427,159,-47
2668,-640,14892,-459,135,-60
2640,-660,14760,-418,151,-74
2608,-664,14928,-438,127,-57
2628,-744,14732,-442,139,-64
2672,-696,14648,-443,145,-79
2708,-644,14748,-429,133,-61
2604,-680,14816,-438,159,-65
2704,-596,14788,-426,128,-80
2568,-732,14772,-441,123,-65
2640,-672,14636,-419,158,-83
2600,-656,14852,-441,153,-70
2544,-664,14764,-433,103,-53
2620,-536,14716,-448,164,-62
2616,-636,14652,-437,140,-69
2620,-668,14584,-411,129,-61
2680,-612,14800,-444,123,-64
2540,-668,14760,-441,159,-55
2664,-684,14728,-431,139,-44
2680,-600,14756,-420,143,-74
2616,-652,14916,-448,176,-47
2660,-672,14732,-444,143,-61
2668,-672,14888,-436,142,-60
2680,-724,14756,-430,129,-50
2688,-592,14884,-443,145,-68
2644,-672,14752,-438,135,-74
2612,-584,14772,-432,111,-84
2568,-640,14696,-442,133,-73
2612,-632,14776,-444,127,-65
2680,-648,14944,-444,130,-78
2592,-616,14772,-452,123,-82
2716,-580,14744,-450,136,-65
2592,-708,14748,-423,146,-57
2660,-676,14860,-439,119,-61
2608,-708,14852,-433,124,-48
2700,-640,14812,-435,106,-66
2668,-640,14732,-438,143,-75
2624,-652,14836,-434,153,-73
2648,-688,14800,-440,125,-63
2552,-696,14836,-450,138,-50
2736,-656,14792,-433,146,-90
2640,-740,14828,-421,139,-86
2684,-628,14608,-461,156,-74
2700,-608,14708,-429,148,-53
2624,-672,14780,-442,143,-65
2680,-800,14748,-457,155,-74
2652,-652,14764,-440,135,-48
2656,-712,14672,-437,152,-55
2604,-624,14752,-428,153,-50
2636,-640,14732,-456,132,-63
2656,-660,14812,-433,131,-72
2628,-668,14868,-455,128,-52
2704,-636,14708,-432,137,-62
2672,-648,14776,-435,140,-51
2560,-652,14752,-448,163,-55
2604,-688,14664,-443,151,-53
2548,-588,14724,-443,121,-80
2792,-612,14744,-438,166,-69
2624,-716,14700,-432,152,-64
2584,-616,14756,-432,98,-73
2620,-620,14796,-450,165,-73
2684,-636,14716,-437,118,-54
2716,-700,14864,-439,141,-53
2624,-636,14796,-452,163,-46
2484,-676,14808,-438,138,-60
2652,-636,14852,-463,155,-62
2724,-700,14628,-435,137,-61
2636,-592,14820,-440,142,-83
2580,-624,14756,-437,148,-74
2616,-644,14736,-437,144,-68
2696,-708,14756,-435,168,-58
2652,-700,14728,-442,135,-42
2660,-676,14852,-443,136,-58
2580,-624,14772,-436,149,-84
2604,-672,14792,-426,167,-58
2632,-684,14764,-433,125,-64
2648,-596,14908,-438,149,-59
2676,-620,14780,-430,165,-62
2532,-536,14832,-433,161,-64
2772,-548,14812,-443,158,-49
2632,-716,14816,-436,144,-67
2712,-680,14860,-440,126,-69
2660,-604,14880,-444,142,-58
2776,-672,14688,-432,175,-47
2588,-648,14884,-428,153,-81
2664,-600,14796,-440,164,-57
2584,-696,14820,-436,157,-68
2632,-732,14712,-425,164,-60
2684,-708,14692,-442,137,-45
2652,-700,14708,-448,144,-54
2672,-620,14776,-428,148,-77
2588,-696,14716,-434,131,-72
2584,-680,14564,-460,138,-60
2592,-624,14868,-433,146,-59
2636,-600,14732,-443,139,-59
2704,-524,14844,-443,124,-62
2708,-740,14824,-426,134,-61
2736,-608,14748,-435,124,-50
2564,-756,14748,-446,132,-71
2568,-576,14784,-431,144,-75
2624,-688,14888,-424,139,-46
2620,-720,14660,-443,149,-70
2604,-616,14908,-442,142,-63
2592,-668,14636,-450,145,-78
2596,-652,14772,-435,149,-60
2684,-624,14816,-440,140,-61
2556,-640,14728,-425,133,-55
2724,-620,14856,-438,127,-61
2556,-516,14800,-430,151,-64
2648,-764,14744,-439,135,-51
2604,-600,14728,-450,135,-54
2536,-676,14700,-440,155,-66
2604,-640,14864,-439,160,-75
2688,-624,14780,-435,153,-78
2632,-596,14820,-432,152,-73
2668,-592,14908,-435,147,-76
2740,-720,14780,-455,113,-72
2636,-660,14808,-426,137,-45
2616,-660,14760,-429,160,-47
2648,-616,14916,-428,154,-61
2600,-740,14776,-449,136,-50
2604,-656,14724,-447,129,-58
2608,-628,14828,-435,158,-65
2656,-600,14756,-448,155,-67
2628,-572,14744,-432,138,-33
2624,-596,14816,-461,124,-55
2616,-592,14764,-435,134,-77
2648,-620,14860,-436,117,-82
2640,-648,14656,-431,158,-42
2672,-640,14692,-439,131,-51
2592,-652,14884,-444,131,-78
2648,-592,14736,-427,126,-66
2724,-688,14724,-424,134,-64
2620,-664,14812,-436,141,-53
2644,-652,14796,-442,143,-76
2572,-708,14924,-452,145,-65
2632,-568,14704,-435,133,-96
2720,-632,14804,-441,125,-64
2716,-668,14796,-413,134,-56
2736,-568,14704,-442,147,-67
2688,-616,14780,-427,140,-55
2636,-684,14948,-425,148,-46
2616,-684,14808,-455,155,-85
2612,-624,14800,-436,124,-90
2768,-644,14756,-433,171,-67
2512,-652,14736,-447,134,-98
2624,-616,14724,-443,156,-43
2568,-652,14824,-427,136,-87
2644,-576,14912,-435,144,-66
2640,-728,14740,-445,130,-62
2656,-652,14900,-449,146,-74
2648,-600,14800,-453,135,-70
2604,-676,14736,-446,154,-83
2636,-592,14848,-434,135,-94
2700,-752,14804,-433,134,-62
2612,-636,14864,-457,141,-44
2712,-556,14620,-441,170,-72
2628,-648,14716,-448,151,-74
2632,-724,14808,-454,122,-83
2712,-708,14844,-453,163,-56
2664,-676,14836,-441,137,-56
2640,-636,14724,-439,120,-45
2616,-648,14784,-449,153,-42
2708,-624,14828,-408,129,-85
2624,-616,14744,-437,134,-61
2644,-652,14828,-449,145,-49
2672,-696,14792,-434,139,-80
2648,-700,14800,-444,127,-76
2764,-736,14836,-444,180,-65
2636,-592,14776,-433,145,-58
2620,-560,14844,-435,153,-70
2680,-652,14560,-425,164,-57
2672,-564,14776,-447,140,-64
2584,-648,14636,-449,141,-52
2660,-680,14760,-430,157,-71
2664,-644,14768,-435,141,-69
2688,-640,14904,-438,141,-80
2576,-628,14868,-414,135,-37
2680,-664,14924,-418,163,-77
2588,-668,14704,-450,134,-51
2700,-656,14796,-413,143,-60
2700,-624,14908,-449,130,-74
2660,-684,14836,-429,140,-66
2648,-536,14864,-435,166,-75
2580,-588,14808,-446,137,-111
2636,-576,14740,-447,164,-47
2664,-588,14752,-428,145,-54
2632,-600,14800,-436,172,-73
2676,-648,14912,-422,148,-69
2632,-640,14736,-452,144,-53
2588,-676,14636,-415,156,-41
2692,-640,14856,-440,154,-61
2724,-608,14788,-449,129,-66
2744,-596,14648,-437,162,-46
2564,-664,14904,-429,154,-57
2684,-560,14756,-432,158,-44
2640,-688,14628,-445,149,-78
2584,-596,14872,-440,168,-59
2620,-704,14792,-449,163,-62
2664,-636,14840,-444,159,-76
2628,-716,14916,-442,136,-66
2636,-680,14880,-428,143,-44
2632,-616,14688,-449,137,-59
2652,-616,14888,-434,143,-88
2632,-608,14784,-442,140,-73
2588,-688,14796,-442,150,-49
2612,-676,14860,-439,144,-77
2796,-668,14784,-455,130,-87
2604,-568,14804,-421,137,-61
2672,-600,14696,-452,165,-66
2632,-652,14792,-438,145,-69
2700,-664,14920,-433,149,-47
2756,-628,14832,-441,145,-55
2668,-572,14876,-437,155,-58
2680,-600,15016,-440,131,-60
2584,-592,14716,-414,148,-71
2596,-540,14776,-434,125,-60
2552,-596,14800,-429,156,-63
2608,-628,14688,-444,158,-66
2600,-632,14772,-436,144,-62
2600,-620,14872,-425,164,-71
2644,-660,14916,-434,142,-63
2640,-648,14660,-441,140,-58
2664,-612,14888,-426,118,-75
2576,-676,14708,-445,149,-70
2584,-656,14772,-436,139,-56
2760,-660,15000,-417,132,-79
2612,-680,14748,-423,166,-89
2620,-640,14736,-446,154,-51
2596,-676,14720,-430,156,-46
2572,-684,14700,-448,135,-56
2660,-688,14672,-445,142,-74
2604,-608,14768,-435,133,-52
2624,-688,14728,-447,154,-62
2640,-612,14716,-439,120,-55
2596,-676,14668,-430,117,-67
2648,-620,14836,-449,161,-50
2712,-604,14904,-441,140,-52
2636,-620,14704,-439,140,-38
2600,-676,14828,-431,166,-56
2584,-612,14768,-421,120,-71
2600,-636,14856,-436,132,-53
2672,-660,14756,-452,148,-77
2652,-568,14852,-439,137,-71
2640,-584,14816,-436,143,-72
2644,-584,14856,-429,147,-42
2604,-744,14840,-446,141,-49
2596,-696,14764,-432,127,-84
2688,-612,14656,-449,116,-71
2652,-664,14788,-428,182,-61
2648,-556,14812,-452,119,-56
2636,-628,14716,-449,146,-72
2724,-636,14708,-438,146,-84
2616,-680,14944,-424,138,-43
2540,-624,14792,-442,146,-65
2624,-696,14740,-450,137,-65
2568,-588,14908,-449,149,-51
2604,-680,14868,-424,148,-62
2724,-560,14808,-445,122,-49
2596,-664,14676,-434,127,-74
2700,-612,14812,-449,128,-58
2604,-684,14700,-437,136,-76
2668,-640,14724,-454,132,-69
2688,-684,14644,-438,118,-85
2636,-644,14852,-422,124,-81
2608,-772,14728,-436,146,-63
2532,-568,14808,-450,135,-86
2608,-664,14668,-438,180,-73
2688,-552,14868,-450,123,-39
2624,-596,14776,-441,121,-59
2600,-596,14884,-456,122,-70
2680,-692,14748,-441,116,-51
2628,-636,14692,-420,132,-40
2616,-708,14752,-442,141,-67
2616,-568,14868,-445,135,-50
2704,-628,14728,-433,116,-77
2672,-592,14848,-453,158,-50
2584,-704,14888,-443,131,-87
2676,-588,14784,-448,160,-50
2564,-672,14704,-438,141,-70
2624,-664,14800,-420,122,-41
2616,-600,14740,-450,148,-60
2732,-688,14896,-441,140,-69
2628,-684,14716,-444,129,-56
2624,-612,14788,-440,142,-56
2636,-668,14736,-456,143,-95
2620,-596,14776,-432,143,-48
2608,-572,14928,-431,146,-61
2588,-668,14844,-442,136,-72
2684,-616,14908,-436,142,-44
2604,-676,14896,-445,160,-74
2612,-648,14732,-428,152,-60
2688,-584,14832,-447,138,-71
2628,-668,14876,-426,140,-55
2616,-616,14812,-454,124,-56
2652,-580,14764,-455,131,-45
2636,-604,14736,-444,150,-70
2580,-592,14640,-452,137,-76
2572,-648,14848,-421,153,-47
2552,-600,14760,-431,151,-35
2764,-664,14688,-456,137,-75
2576,-604,14832,-445,113,-73
2684,-556,14816,-443,146,-48
2632,-628,14900,-455,139,-45
2572,-584,14648,-430,156,-58
2568,-628,14740,-440,150,-67
2708,-648,14928,-420,139,-63
2636,-660,14800,-443,120,-66
2604,-648,14792,-434,139,-70
2692,-624,14764,-452,127,-87
2636,-660,14740,-432,128,-68
2684,-716,14796,-437,157,-70
2588,-656,14816,-429,140,-61
2748,-612,14780,-433,120,-58
2636,-684,14840,-436,139,-59
2680,-716,14728,-429,116,-63
2624,-708,14844,-436,133,-54
2592,-656,14764,-447,119,-64
2564,-708,14688,-448,144,-62
2684,-688,14904,-448,150,-63
2644,-612,14728,-440,137,-89
2540,-640,14872,-436,138,-50
2724,-612,14836,-428,156,-65
2644,-592,14792,-465,134,-66
2612,-560,14912,-451,147,-71
2688,-712,14716,-443,138,-51
2636,-668,14692,-446,168,-61
2560,-624,14736,-444,149,-63
2636,-620,14844,-427,112,-65
2680,-576,14788,-437,145,-67
2660,-608,14824,-447,162,-61
2596,-596,14832,-437,161,-67
2668,-664,14728,-433,127,-63
2596,-616,14800,-442,158,-45
2660,-616,14808,-443,143,-66
2624,-648,14812,-457,130,-39
2748,-660,14712,-437,128,-70
2592,-676,14824,-426,145,-69
2616,-604,14792,-438,170,-50
2648,-636,14888,-431,159,-62
2620,-552,14740,-453,136,-61
2736,-604,14856,-440,156,-59
2664,-676,14796,-437,124,-65
2588,-652,14880,-435,150,-52
2672,-648,14740,-456,159,-43
2608,-576,14900,-443,152,-66
2580,-604,14748,-454,142,-67
2624,-588,14628,-425,145,-70
2600,-560,14764,-446,128,-47
2680,-676,14760,-429,162,-58
2640,-648,14664,-444,141,-76
2692,-632,14740,-432,156,-40
2676,-604,14796,-434,125,-69
2640,-532,14932,-430,143,-68
2748,-728,14772,-441,137,-75
2616,-724,14836,-420,148,-61
2596,-592,14820,-428,132,-61
2592,-736,14612,-428,121,-50
2628,-556,14808,-437,150,-55
2632,-656,14788,-437,147,-67
2592,-656,14780,-442,149,-41
2532,-540,14720,-453,117,-62
2608,-616,14744,-446,152,-55
2596,-656,14876,-452,148,-53
2672,-668,14880,-444,153,-76
2684,-640,14740,-429,138,-66
2632,-708,14688,-457,138,-82
2780,-624,14732,-444,132,-61
2584,-592,14816,-424,159,-63
2548,-652,14884,-429,145,-66
2648,-608,14664,-430,157,-68
2648,-616,14880,-438,122,-65
2656,-600,14864,-440,155,-75
2580,-732,14568,-441,160,-66
2728,-688,14644,-431,115,-48
2664,-656,14692,-445,150,-67
2628,-644,14764,-442,147,-39
2664,-684,15012,-443,108,-46
2588,-612,14916,-430,132,-51
2548,-632,14808,-423,182,-79
2632,-628,14684,-430,125,-69
2692,-660,14680,-439,138,-91
2544,-636,14700,-451,146,-74
2692,-672,14808,-443,141,-68
2564,-624,14824,-440,105,-56
2532,-712,14764,-444,152,-66
2644,-660,14780,-437,131,-68
2616,-612,14732,-438,153,-79
2624,-640,14872,-451,146,-56
2592,-632,14844,-429,165,-70
2640,-572,14868,-426,135,-76
2660,-660,14724,-452,125,-74
2676,-600,14788,-429,132,-66
2600,-560,14648,-423,142,-74
2712,-724,14780,-427,141,-71
2648,-608,14732,-416,127,-65
2628,-608,14832,-434,129,-44
2716,-700,14880,-440,155,-69
2696,-684,14796,-429,146,-71
2556,-560,14868,-422,164,-51
2688,-716,15036,-442,134,-60
2644,-576,14836,-435,119,-68
2584,-644,14776,-432,139,-86
2628,-656,14868,-431,155,-58
2560,-648,14864,-439,118,-70
2636,-676,14876,-456,137,-59
2508,-576,14656,-446,115,-59
2520,-700,14796,-444,143,-52
2652,-716,14888,-454,124,-55
2716,-672,14768,-430,136,-75
2692,-620,14944,-439,141,-54
2712,-716,14876,-420,156,-63
2676,-696,14748,-444,134,-47
2592,-640,14644,-450,126,-60
2600,-696,14676,-437,156,-65
2600,-672,14804,-444,138,-75
2696,-656,14824,-433,161,-84
2756,-648,14732,-423,128,-70
2628,-540,14688,-436,130,-78
2620,-672,14804,-444,129,-54
2692,-648,14640,-447,155,-77
2648,-624,14852,-425,154,-79
2644,-636,14800,-428,147,-65
2660,-640,14728,-435,169,-95
2680,-564,14800,-435,142,-55
2664,-680,14936,-434,135,-58
2612,-664,14864,-431,154,-55
2664,-552,14804,-442,132,-63
2668,-632,14776,-454,138,-87
2464,-696,14832,-443,154,-50
2680,-660,14832,-425,151,-59
2772,-652,14684,-439,141,-48
2600,-612,14700,-451,122,-99
2732,-672,14752,-445,146,-79
2648,-672,14780,-419,148,-62
2648,-604,14732,-446,138,-65
2620,-552,14704,-425,127,-54
2624,-624,14748,-436,155,-67
2664,-592,14772,-421,135,-68
2604,-612,14780,-436,145,-49
2716,-672,14824,-440,133,-63
2656,-636,14824,-437,154,-71
2628,-604,14784,-444,133,-70
2556,-700,14700,-438,143,-70
2668,-700,14804,-453,142,-63
2736,-616,14692,-437,130,-62
2600,-612,14804,-447,142,-48
2628,-716,14800,-428,131,-63
2560,-712,14728,-445,157,-45
2680,-600,14796,-451,136,-70
2624,-616,14896,-431,125,-59
2708,-560,14936,-436,137,-76
2648,-700,14812,-452,160,-48
2640,-640,14760,-440,131,-76
2600,-672,14920,-434,154,-74
2660,-688,14728,-431,143,-62
2560,-684,14796,-434,130,-65
2664,-552,14808,-421,124,-66
2672,-620,14676,-438,154,-82
2584,-460,14772,-456,159,-80
2700,-692,14824,-431,159,-60
2592,-644,14808,-427,163,-93
2664,-648,14756,-420,138,-75
2600,-624,14852,-439,131,-53
2644,-632,14800,-456,142,-59
2588,-616,14832,-438,158,-65
2564,-588,14812,-442,174,-84
2608,-664,14972,-439,144,-54
2592,-664,14756,-428,156,-54
2652,-524,14524,-435,150,-61
2608,-676,14848,-447,146,-67
2656,-616,14816,-442,161,-67
2632,-712,14848,-431,156,-71
2740,-572,14872,-436,137,-38
2600,-564,14808,-434,143,-70
2556,-564,14700,-417,139,-60
2584,-684,14920,-436,152,-67
2588,-752,14764,-428,146,-48
2656,-636,14840,-443,158,-76
2692,-560,14772,-440,145,-53
2564,-732,14752,-446,115,-40
2636,-604,14824,-441,135,-74
2732,-640,14736,-449,151,-52
2636,-672,14764,-434,148,-73
2620,-664,14852,-431,138,-86
2640,-624,14876,-441,133,-71
2652,-696,14808,-433,148,-64
2572,-672,14772,-438,129,-63
2632,-620,14792,-409,163,-73
2608,-672,14796,-434,161,-60
2548,-624,14800,-433,140,-73
2616,-640,14708,-442,144,-50
2620,-668,14788,-428,132,-57
2680,-600,14880,-423,113,-68
2568,-484,14792,-440,147,-84
2648,-696,14900,-441,173,-68
2572,-672,14728,-441,166,-59
2620,-632,14780,-407,143,-66
2560,-588,14852,-444,146,-75
2584,-652,14772,-442,122,-52
2616,-688,14892,-441,131,-73
2608,-588,14872,-437,115,-65
2684,-620,14752,-434,155,-67
2588,-576,14856,-439,126,-55
2740,-588,14708,-441,133,-73
2700,-664,14764,-443,132,-72
2628,-704,14832,-425,127,-68
2680,-608,14880,-443,176,-77
2584,-652,14828,-443,134,-63
2624,-576,14940,-416,140,-66
2632,-664,14792,-426,141,-56
2716,-728,14744,-445,151,-60
2720,-640,14744,-437,159,-52
2628,-548,14768,-440,135,-36
2680,-620,14716,-448,127,-64
2724,-560,14756,-429,118,-74
2724,-636,14764,-441,166,-53
2672,-652,14700,-418,166,-85
2596,-596,14896,-425,139,-69
2660,-644,14716,-436,141,-58
2672,-564,14820,-440,108,-66
2648,-612,14772,-433,127,-63
2772,-652,14804,-444,134,-72
2636,-776,14756,-425,141,-48
2680,-632,14828,-445,158,-54
2648,-692,14744,-446,125,-56
2624,-572,14860,-434,138,-86
2688,-600,14816,-429,172,-71
2560,-644,14736,-450,147,-52
2708,-628,14692,-433,144,-62
2688,-696,14712,-415,153,-73
2636,-684,14788,-447,165,-61
2628,-600,14924,-442,129,-64
2660,-616,14760,-430,113,-66
2672,-648,14764,-431,144,-66
2656,-640,14660,-431,138,-62
2580,-600,14776,-434,133,-82
2556,-676,14728,-435,134,-85
2528,-584,14904,-431,141,-50
2608,-600,14876,-444,139,-78
2576,-640,14760,-441,111,-67
2680,-700,14816,-430,144,-58
2712,-640,14800,-457,117,-73
2736,-596,14768,-437,133,-89
2608,-624,14812,-441,143,-72
2648,-560,14728,-430,144,-35
2692,-628,14748,-440,159,-54
2544,-712,14756,-439,106,-59
2608,-516,14940,-420,132,-51
2608,-608,14904,-437,135,-67
2648,-648,14852,-436,122,-81
2660,-604,14724,-453,156,-56
2616,-636,14852,-442,120,-44
2616,-596,14776,-427,124,-74
2564,-524,14780,-430,169,-75
2560,-604,14804,-450,153,-77
2708,-644,14740,-438,126,-69
2708,-600,14764,-446,140,-86
2604,-656,14712,-442,157,-59
2652,-576,14816,-446,157,-74
2600,-604,14896,-415,168,-57
2540,-516,14764,-456,136,-67
2696,-636,14760,-431,143,-52
2648,-500,14868,-441,123,-80
2772,-664,14860,-453,157,-72
2616,-748,14836,-440,146,-53
2688,-720,14740,-405,124,-73
2568,-652,14832,-449,143,-42
2592,-672,14844,-445,143,-70
2636,-604,14820,-453,158,-59
2768,-636,14772,-427,147,-53
2592,-656,14772,-431,139,-65
2632,-576,14716,-426,131,-63
2616,-652,14680,-434,152,-28
2712,-600,14792,-429,170,-80
2576,-684,14748,-426,135,-77
2652,-628,14752,-429,147,-75
2648,-600,14788,-437,157,-60
2604,-628,14712,-433,132,-78
2724,-668,14624,-430,120,-60
2584,-704,14668,-455,142,-67
2704,-612,14860,-450,147,-72
2588,-652,14800,-421,149,-68
2628,-612,14804,-446,144,-74
2636,-608,14700,-428,132,-70
2648,-600,14900,-448,135,-57
2668,-684,14724,-423,131,-42
2724,-716,14856,-450,139,-52
2620,-696,14796,-446,97,-36
2680,-652,14736,-447,164,-63
2624,-620,14784,-454,124,-73
2660,-684,14708,-441,136,-56
2664,-560,14808,-435,156,-67
2696,-612,14756,-425,155,-57
2772,-636,14804,-426,156,-68
2624,-644,14596,-434,144,-86
2680,-600,14844,-429,134,-74
2740,-640,14868,-460,118,-75
2708,-588,14840,-422,161,-70
2668,-732,14772,-435,145,-51
2544,-556,14744,-431,159,-62
2628,-572,14756,-434,150,-78
2704,-688,14836,-444,172,-35
2624,-588,14896,-438,135,-47
2656,-660,14800,-423,152,-74
2652,-580,14776,-437,134,-45
2676,-656,14712,-457,167,-65
2632,-668,14856,-454,148,-64
2572,-592,14768,-451,148,-71
2744,-736,14676,-443,142,-52
2648,-576,14816,-450,137,-66
2656,-608,14676,-435,124,-70
2616,-584,14788,-441,168,-67
2592,-604,14720,-450,150,-74
2560,-708,14868,-437,149,-62
2596,-656,14792,-436,133,-77
2628,-628,14756,-433,124,-49
2636,-596,14788,-431,147,-47
2624,-684,14760,-441,142,-73
2712,-660,14780,-426,153,-59
2668,-640,14752,-444,154,-63
2640,-564,14688,-450,162,-62
2576,-660,14744,-434,129,-54
2716,-664,14824,-460,168,-72
2620,-660,14724,-431,133,-59
2572,-580,14832,-414,139,-48
2648,-548,14764,-434,153,-62
2676,-576,14588,-438,124,-95
2632,-592,14744,-438,134,-53
2536,-624,14828,-445,145,-68
2676,-672,14908,-451,130,-51
2644,-644,14840,-445,142,-63
2692,-564,14888,-440,140,-72
2668,-560,14736,-451,149,-77
2732,-700,14928,-439,167,-55
2688,-664,14760,-439,127,-51
2748,-588,14724,-429,137,-66
2632,-568,14852,-434,142,-58
2724,-772,14872,-439,148,-92
2692,-612,14772,-430,156,-72
2692,-628,14652,-440,137,-95
2688,-556,14712,-446,152,-78
2664,-672,14904,-430,156,-60
2584,-656,14856,-441,122,-57
2568,-660,14812,-436,138,-67
2728,-692,14656,-434,155,-87
2684,-560,14808,-449,111,-86
2632,-572,14880,-435,149,-77
2684,-668,14728,-438,144,-54
2528,-656,14752,-440,125,-57
2628,-688,14712,-447,159,-53
2696,-680,14836,-438,160,-39
2556,-744,14896,-429,141,-73
2700,-688,14824,-442,134,-44
2680,-672,14808,-455,157,-86
2684,-544,14804,-446,148,-54
2612,-664,14688,-429,120,-59
2612,-668,14796,-446,131,-63
2632,-688,14700,-444,127,-71
2636,-608,14736,-427,108,-88
2604,-740,14720,-440,136,-82
2648,-616,14760,-435,132,-63
2604,-712,14744,-438,165,-65
2612,-628,14512,-458,134,-69
2728,-644,14620,-442,137,-47
2684,-624,14764,-442,172,-59
2636,-652,14700,-440,149,-59
2528,-576,14592,-419,149,-55
2628,-564,14768,-440,165,-33
2644,-688,14816,-449,124,-55
2576,-628,14772,-444,169,-51
2652,-624,14796,-440,114,-76
2736,-628,14828,-432,119,-78
2628,-596,14868,-427,163,-52
2688,-704,14688,-438,147,-70
2600,-576,14772,-461,135,-63
2632,-592,14724,-446,146,-55
2616,-664,14836,-433,147,-71
2644,-548,14788,-429,132,-69
2592,-600,14740,-438,158,-43
2612,-656,14876,-433,154,-58
2712,-628,14924,-452,127,-61
2712,-640,14768,-428,146,-86
2560,-648,14720,-438,123,-42
2680,-628,14760,-451,124,-65
2732,-628,14852,-437,157,-67
2656,-696,14924,-433,137,-52
2792,-740,14756,-435,124,-62
2716,-720,14676,-437,154,-60
2648,-608,14800,-433,136,-65
2652,-692,14808,-443,137,-60
2716,-712,14812,-449,136,-45
2732,-676,14684,-431,151,-67
2672,-664,14796,-449,124,-65
2632,-616,14800,-413,156,-72
2692,-640,15112,-436,142,-82
2752,-664,14772,-442,151,-69
2712,-676,14752,-436,146,-59
2672,-572,14884,-430,132,-54
2636,-728,14892,-452,130,-78
2608,-668,14784,-439,148,-61
2772,-720,14840,-440,136,-46
2624,-680,14832,-430,143,-50
2588,-648,14728,-426,158,-50
2616,-536,14732,-457,124,-71
2620,-580,14832,-457,165,-69
2580,-604,14724,-443,143,-73
2648,-564,14700,-446,133,-73
2644,-592,14776,-433,141,-60
2664,-616,14728,-459,174,-40
2668,-660,14816,-431,148,-69
2568,-632,14768,-440,139,-58
2700,-716,14852,-435,148,-44
2660,-576,14688,-429,152,-50
2628,-712,14736,-434,143,-66
2568,-636,14772,-435,123,-83
2632,-652,14852,-427,150,-68
2668,-692,14716,-448,165,-67
2696,-640,14872,-457,122,-50
2624,-684,14800,-451,153,-75
2716,-524,14724,-446,165,-53
2692,-704,14796,-458,144,-62
2680,-644,14848,-438,137,-70
2668,-624,14792,-439,139,-63
2608,-688,14752,-451,124,-67
2660,-652,14804,-435,176,-63
2580,-656,14672,-438,132,-73
2620,-584,14816,-442,170,-68
2568,-676,14860,-428,126,-70
2696,-688,14772,-432,146,-54
2648,-700,14876,-449,156,-63
2664,-572,14796,-441,171,-50
2588,-592,14748,-452,112,-68
2700,-628,14888,-431,140,-68
2600,-632,14672,-416,168,-78
2600,-576,14716,-421,123,-42
2676,-696,14844,-445,142,-50
2640,-652,14716,-460,163,-48
2636,-608,14764,-439,161,-72
2640,-700,14852,-417,144,-78
2644,-692,14860,-437,163,-62
2664,-684,14796,-443,114,-59
2636,-676,14876,-412,161,-66
2736,-680,14664,-448,142,-47
2648,-648,14680,-422,138,-44
2624,-620,14768,-426,116,-46
2604,-604,14812,-450,151,-76
2592,-676,14888,-424,132,-63
2544,-600,14744,-423,142,-66
2676,-584,14712,-440,152,-52
2584,-620,14844,-438,139,-55
2636,-572,14788,-456,134,-56
2724,-660,14968,-443,152,-71
2656,-636,14916,-435,123,-77
2536,-592,14704,-435,127,-44
2636,-692,14940,-426,159,-75
2640,-608,14832,-455,142,-73
2652,-608,14828,-428,156,-82
2560,-664,14796,-443,134,-63
2712,-564,14816,-435,120,-69
2588,-652,14880,-436,138,-66
2712,-652,14704,-420,154,-55
2620,-684,14736,-446,130,-73
2652,-704,14808,-433,156,-67
2724,-552,14852,-420,109,-55
2620,-644,14640,-432,161,-56
2680,-636,14852,-445,136,-64
2576,-568,14988,-445,158,-86
2708,-656,14788,-447,144,-74
2712,-604,14760,-460,153,-47
2736,-636,14636,-439,138,-68
2644,-592,14720,-443,142,-91
2660,-640,14760,-437,137,-81
2664,-600,14880,-440,133,-50
2616,-624,14868,-451,140,-70
2672,-644,14828,-444,150,-63
2704,-680,14784,-451,135,-80
2600,-692,14664,-439,126,-47
2628,-564,14792,-433,139,-60
2616,-612,14652,-436,151,-24
2688,-568,14944,-445,133,-57
2596,-584,14680,-443,173,-70
2596,-648,14848,-447,156,-53
2664,-720,14724,-441,133,-79
2624,-572,14788,-438,188,-66
2696,-708,14672,-440,148,-79
2628,-796,14744,-431,177,-61
2604,-600,14756,-435,111,-69
2704,-564,14696,-437,144,-69
2572,-700,14772,-451,131,-55
2600,-612,14680,-425,144,-45
2640,-680,14620,-443,150,-62
2688,-608,14844,-449,162,-61
2676,-636,14672,-423,144,-47
2740,-732,14692,-446,129,-74
2496,-496,14796,-429,121,-71
2584,-572,14820,-441,134,-72
2684,-692,14952,-435,131,-55
2672,-632,14772,-431,139,-47
2592,-644,14664,-445,144,-63
2704,-648,14944,-434,131,-57
2636,-624,14708,-438,131,-62
2608,-660,14692,-446,121,-74
2628,-580,14784,-449,135,-66
2596,-524,14784,-436,142,-79
2692,-700,14728,-447,141,-52
2664,-632,14800,-449,135,-71
2584,-608,14684,-434,144,-75
2704,-616,14736,-431,129,-57
2572,-648,14892,-435,153,-73
2608,-628,14736,-445,147,-71
2676,-640,14676,-433,141,-66
2704,-676,14820,-434,153,-57
2652,-732,14772,-429,152,-60
2768,-604,14884,-439,136,-75
2720,-656,14824,-436,162,-62
2680,-644,14764,-436,139,-49
2588,-704,14708,-428,163,-74
2680,-620,14832,-441,125,-76
2652,-712,14964,-443,113,-70
2624,-600,14728,-448,139,-55
2744,-580,14820,-435,143,-64
2700,-632,14756,-443,132,-66
2696,-640,14864,-451,138,-79
2552,-588,14688,-447,129,-43
2648,-684,14748,-437,153,-52
2652,-644,14616,-423,123,-67
2596,-580,14728,-440,141,-51
2604,-628,14816,-462,164,-37
2636,-644,14832,-423,141,-51
2584,-604,14960,-445,159,-83
2604,-648,14740,-429,133,-52
2576,-592,14840,-428,142,-56
2736,-632,14736,-442,156,-55
2532,-632,14844,-445,142,-70
2540,-732,14892,-444,142,-54
2680,-660,14848,-447,155,-57
2644,-560,14776,-438,163,-51
2664,-728,14696,-418,149,-63
2620,-660,14892,-451,135,-62
2684,-704,14700,-435,125,-77
2508,-616,14868,-454,164,-81
2612,-700,14664,-440,123,-64
2632,-600,14820,-434,140,-60
2572,-608,14780,-447,164,-70
2624,-592,14728,-431,150,-65
2644,-604,14852,-446,142,-53
2716,-628,14916,-445,151,-68
2608,-620,14688,-426,150,-68
2580,-656,14772,-442,143,-55
2704,-668,14808,-442,117,-48
2576,-752,14880,-428,156,-51
2604,-648,14828,-453,139,-49
2724,-540,14864,-446,144,-69
2592,-568,14736,-426,140,-64
2676,-636,14888,-445,154,-73
2564,-592,14708,-429,139,-76
2664,-568,14700,-458,130,-76
2676,-604,14684,-442,147,-58
2636,-628,14768,-441,143,-49
2624,-628,14736,-412,170,-52
2652,-612,14876,-433,147,-79
2704,-652,14816,-442,131,-53
2604,-660,14704,-437,149,-56
2748,-572,14656,-448,164,-50
2576,-676,14804,-430,175,-61
2568,-708,14760,-434,151,-48
2696,-556,14824,-433,154,-41
2680,-504,14772,-434,141,-69
2608,-604,14744,-449,113,-76
2680,-520,14808,-424,147,-71
2640,-660,14712,-449,133,-61
2740,-708,14700,-446,130,-49
2612,-624,14736,-434,144,-74
2652,-612,14788,-446,139,-50
2692,-640,14852,-443,148,-57
2628,-648,14796,-447,150,-70
2664,-696,14724,-439,137,-55
2612,-704,14824,-442,154,-78
2604,-652,14696,-433,134,-68
2536,-648,14864,-434,131,-55
2704,-608,14816,-433,150,-62
2664,-512,14824,-422,142,-77
2688,-556,14812,-448,140,-79
2608,-676,14640,-446,143,-79
2560,-668,14740,-428,149,-87
2592,-648,14820,-427,150,-62
2640,-660,14676,-434,142,-67
2688,-676,14716,-426,175,-37
2700,-596,14756,-455,152,-68
2684,-628,14796,-431,128,-63
2708,-696,14872,-441,166,-68
2584,-572,14780,-440,138,-43
2652,-616,14740,-438,133,-63
2592,-668,14756,-446,144,-61
2616,-616,14728,-448,148,-96
2536,-676,14676,-445,117,-75
2668,-640,14728,-442,155,-77
2652,-648,14848,-441,158,-55
2648,-636,14720,-447,129,-50
2580,-664,14828,-439,136,-66
2560,-612,14704,-428,126,-82
2668,-612,14880,-441,135,-62
2552,-616,14804,-432,122,-66
2592,-672,14772,-441,150,-69
2644,-524,14760,-422,119,-72
2524,-640,14900,-423,153,-67
2692,-644,14800,-440,151,-70
2652,-616,14780,-431,145,-56
2624,-676,14828,-434,155,-63
2748,-540,14852,-444,168,-74
2656,-672,14820,-433,137,-67
2572,-696,14836,-440,141,-53
2716,-660,14768,-435,168,-64
2684,-672,14752,-434,139,-52
2696,-680,14740,-421,141,-93
2656,-764,14736,-415,149,-77
2516,-608,14784,-435,116,-54
2624,-564,14760,-440,122,-38
2656,-708,14836,-460,117,-74
2668,-568,14836,-436,145,-70
2736,-564,14824,-440,143,-47
2616,-684,14896,-426,147,-72
2676,-604,14908,-439,113,-52
2648,-752,14752,-445,158,-58
2596,-620,14752,-440,143,-71
2648,-576,14752,-453,140,-70
2608,-684,14852,-439,141,-55
2688,-708,14644,-433,165,-65
2660,-708,14792,-436,159,-64
2644,-612,14580,-444,187,-72
2536,-608,14744,-452,141,-53
2644,-544,14836,-446,161,-72
2612,-596,14840,-430,146,-63
2740,-628,14772,-447,145,-66
2672,-636,14888,-424,137,-80
2712,-684,14768,-451,159,-32
2672,-644,14716,-451,166,-79
2624,-648,14836,-438,151,-61
2672,-640,14732,-441,126,-68
2700,-628,14804,-432,141,-63
2672,-696,14752,-442,126,-73
2616,-664,14716,-427,147,-76
2740,-696,14836,-447,141,-80
2640,-584,14752,-436,131,-74
2624,-700,14788,-436,155,-62
2512,-648,14816,-441,168,-75
2604,-608,14744,-439,136,-56
2636,-640,14824,-431,128,-71
2548,-624,14820,-437,130,-86
2664,-640,14716,-443,156,-63
2680,-692,14764,-437,122,-61
2700,-696,14872,-443,141,-41
2640,-604,14800,-429,140,-99
2620,-688,14784,-449,176,-57
2680,-676,14880,-452,165,-65
2704,-696,14636,-424,130,-50
2680,-652,14756,-456,144,-75
2568,-664,14816,-441,123,-50
2652,-580,14960,-436,149,-70
2640,-668,14700,-441,132,-59
2544,-660,14712,-468,141,-51
2540,-776,14784,-437,164,-80
2708,-672,14812,-459,158,-62
2680,-676,14784,-440,133,-63
2656,-656,14904,-441,120,-67
2616,-692,14860,-421,156,-74
2728,-632,14852,-425,138,-77
2572,-628,14836,-455,119,-76
2700,-616,14784,-434,161,-72
2524,-636,14608,-423,134,-74
2728,-568,14876,-451,159,-58
2720,-716,14724,-454,141,-68
2588,-716,14664,-435,161,-71
2588,-684,14744,-417,141,-42
2672,-684,14816,-435,139,-54
2604,-664,14836,-436,138,-54
2680,-700,14716,-433,146,-81
2636,-584,14768,-422,145,-66
2680,-716,14840,-424,143,-81
2712,-684,14772,-439,137,-65
2644,-612,14840,-435,153,-62
2772,-672,14816,-435,135,-71
2632,-680,14776,-430,180,-83
2716,-592,14796,-458,161,-70
2576,-624,14868,-445,157,-72
2616,-640,14796,-445,168,-55
2636,-684,14820,-438,148,-62
2668,-620,14736,-442,130,-58
2696,-688,14656,-429,147,-55
2732,-620,14748,-447,148,-66
2684,-628,14828,-428,152,-66
2700,-572,14988,-428,133,-79
2624,-636,14788,-446,141,-68
2692,-704,14776,-418,140,-78
2604,-680,14940,-441,159,-62
2636,-580,14732,-442,133,-60
2660,-608,14692,-435,177,-41
2624,-596,14856,-422,161,-78
2604,-788,14824,-452,123,-79
2680,-600,14776,-440,121,-48
2616,-680,14732,-423,145,-51
2572,-592,14884,-457,144,-83
2608,-624,14716,-435,141,-57
2776,-640,14772,-429,137,-63
2628,-620,14808,-436,149,-71
2632,-648,14808,-446,154,-53
2688,-704,14868,-426,147,-56
2624,-660,14852,-431,153,-56
2636,-624,14912,-428,154,-69
2584,-648,14724,-434,129,-49
2696,-712,14736,-437,131,-50
2560,-708,14824,-441,142,-56
2724,-700,14824,-450,139,-55
2700,-568,14856,-438,139,-75
2684,-648,14844,-451,150,-57
2640,-696,14780,-443,121,-46
2648,-544,14744,-437,164,-57
2680,-600,14904,-438,150,-87
2608,-644,14748,-431,129,-88
2624,-624,14908,-432,127,-61
2640,-632,14820,-420,149,-60
2676,-616,14608,-423,129,-64
2632,-592,14744,-422,160,-77
2548,-692,14852,-449,123,-70
2608,-680,14872,-442,166,-66
2596,-656,14704,-429,161,-60
2684,-636,14888,-417,130,-57
2640,-676,14696,-431,142,-62
2660,-628,14760,-461,146,-36
2632,-628,14708,-430,150,-60
2680,-680,14612,-430,163,-50
2556,-576,14796,-447,130,-49
2648,-636,14820,-442,130,-65
2656,-616,14828,-432,131,-80
2668,-684,14816,-429,118,-66
2680,-724,14876,-428,157,-46
2620,-556,14832,-446,110,-80
2688,-628,14808,-440,136,-87
2600,-636,14740,-417,133,-82
2672,-616,14808,-442,146,-81
2580,-668,14848,-437,153,-58
2576,-576,14824,-426,131,-71
2672,-588,14772,-443,159,-48
2668,-644,14824,-429,169,-58
2664,-636,14700,-428,129,-65
2772,-568,14780,-438,144,-43
2532,-756,14764,-424,146,-59
2740,-664,14932,-434,149,-60
2624,-720,14776,-445,147,-66
2628,-568,14720,-429,120,-67
2644,-672,14848,-436,167,-74
2612,-664,14884,-445,132,-46
2668,-648,14796,-435,137,-62
2672,-728,14740,-441,163,-91
2596,-580,14948,-437,135,-58
2544,-764,14780,-435,146,-74
2728,-536,14856,-446,152,-39
2644,-628,14704,-440,149,-56
2572,-624,14748,-433,142,-69
2628,-684,14724,-444,148,-48
2588,-664,14796,-446,122,-81
2616,-648,14932,-447,145,-62
2592,-632,14776,-443,127,-88
2668,-616,14956,-442,128,-64
2648,-636,14908,-433,147,-59
2688,-580,14808,-447,148,-64
2672,-668,14880,-439,146,-58
2652,-584,14804,-443,126,-65
2660,-696,14708,-440,138,-71
2716,-640,14824,-455,157,-69
2732,-568,14692,-456,154,-44
2604,-524,14844,-458,132,-59
2764,-540,14756,-446,168,-70
2576,-664,14964,-431,160,-71
2568,-668,14724,-432,142,-50
2676,-556,14840,-435,133,-55
2660,-656,14860,-414,130,-64
2668,-580,14688,-446,130,-44
2540,-624,14796,-436,124,-60
2692,-680,14860,-434,160,-63
2524,-668,14804,-448,131,-79
2648,-636,14700,-427,130,-66
2604,-660,14756,-438,122,-69
2636,-640,14652,-442,150,-46
2636,-708,14640,-442,146,-52
2700,-764,14800,-444,143,-61
2564,-632,14728,-444,128,-82
2640,-572,14832,-441,132,-87
2700,-704,14772,-444,148,-78
2608,-608,14808,-435,148,-63
2612,-656,14864,-428,156,-55
2604,-584,14904,-424,161,-70
2580,-648,14732,-437,161,-56
2656,-636,14784,-450,139,-76
2576,-708,14752,-437,137,-87
2604,-648,14764,-454,171,-53
2600,-532,14708,-438,122,-70
2624,-716,14796,-442,142,-64
2580,-648,14648,-423,158,-51
2724,-680,14868,-448,125,-76
2688,-568,15012,-426,159,-75
2668,-652,14920,-450,151,-54
2736,-680,14724,-441,124,-62
2636,-636,14680,-433,138,-87
2664,-544,14764,-430,122,-58
2724,-644,14648,-432,150,-62
2592,-608,14800,-454,136,-50
2660,-656,14664,-437,138,-55
2676,-672,14732,-420,140,-72
2592,-656,14760,-430,146,-84
2700,-580,14676,-434,170,-56
2616,-592,14828,-426,110,-74
2652,-648,14656,-424,162,-74
2616,-600,14800,-438,120,-51
2652,-720,14772,-435,139,-74
2648,-644,14592,-439,139,-61
2648,-616,14824,-435,151,-64
2680,-632,14708,-439,146,-43
2684,-676,14808,-433,132,-65
2640,-624,14868,-448,132,-67
2636,-668,14736,-449,136,-83
2628,-712,14696,-438,156,-62
2620,-632,14820,-457,143,-44
2548,-672,14888,-439,135,-55
2660,-688,14800,-439,152,-102
2712,-640,14852,-443,158,-71
2636,-632,14828,-448,148,-72
2588,-600,14728,-432,137,-76
2664,-580,14752,-429,140,-64
2628,-664,14780,-437,121,-75
2644,-700,14844,-447,167,-101
2652,-652,14732,-435,146,-55
2652,-756,14848,-446,128,-47
2540,-676,14876,-444,141,-71
2600,-652,14792,-452,139,-67
2708,-696,14748,-446,154,-71
2596,-628,14828,-455,172,-45
2628,-708,14656,-436,152,-66
2620,-616,14804,-426,150,-53
2636,-580,14832,-438,151,-61
2472,-652,14772,-434,139,-88
2692,-644,14848,-452,139,-55
2656,-644,14772,-428,156,-57
2588,-620,14724,-439,148,-68
2680,-604,14700,-430,120,-63
2636,-648,14896,-445,127,-66
2664,-652,14896,-439,141,-47
2628,-560,14828,-448,121,-57
2676,-676,14752,-444,127,-97
2696,-724,14832,-447,145,-68
2608,-668,14748,-439,150,-48
2744,-632,14748,-443,150,-68
2632,-712,14780,-436,138,-61
2660,-640,14848,-435,141,-64
2584,-596,14700,-442,139,-68
2640,-664,14840,-443,143,-54
2744,-592,14636,-444,135,-54
2748,-700,14792,-451,155,-69
2632,-600,14856,-417,138,-69
2668,-588,14668,-429,177,-54
2684,-536,14816,-442,146,-65
2704,-668,14672,-425,157,-59
2660,-660,14744,-436,164,-70
2604,-660,14696,-435,167,-56
2536,-576,14892,-452,169,-60
2620,-636,14840,-426,148,-70
2548,-672,14732,-463,147,-54
2580,-656,14736,-436,120,-67
2636,-540,14772,-443,136,-71
2692,-600,14688,-444,149,-39
2600,-672,14896,-446,138,-78
2640,-508,14776,-442,137,-52
2552,-660,14808,-438,147,-72
2664,-800,14844,-418,163,-61
2752,-604,14752,-432,158,-56
2688,-632,14660,-436,142,-53
2604,-588,14816,-434,163,-91
2596,-588,14824,-444,162,-74
2756,-640,14760,-440,139,-48
2592,-716,14832,-421,137,-77
2528,-664,14844,-437,152,-57
2588,-728,14860,-457,148,-69
2720,-580,14880,-439,132,-72
2628,-704,14852,-435,141,-60
2628,-624,14820,-453,147,-75
2596,-568,14792,-450,144,-63
2712,-640,14788,-437,152,-42
2696,-652,14780,-442,136,-60
2636,-640,14768,-461,139,-58
2588,-652,14796,-427,133,-64
2628,-612,14792,-445,160,-50
2680,-612,14820,-441,154,-55
2568,-652,14768,-451,158,-77
2600,-712,14860,-425,153,-82
2640,-640,14832,-449,166,-77
2660,-708,14888,-450,164,-71
2672,-604,14940,-449,150,-60
2636,-484,14748,-436,142,-51
2692,-688,14752,-423,150,-60
2616,-640,14788,-452,139,-61
2648,-744,14836,-443,131,-50
2656,-716,14808,-454,141,-58
2636,-608,14788,-450,130,-54
2588,-588,14796,-454,141,-61
2500,-612,14776,-428,130,-71
2624,-712,14752,-446,168,-47
2652,-664,14896,-445,156,-74
2692,-652,14860,-450,136,-71
2660,-692,14844,-415,146,-65
2648,-608,14780,-431,115,-80
2596,-612,14760,-447,123,-79
2600,-652,15044,-441,164,-60
2544,-636,14840,-426,151,-66
2516,-600,14908,-436,129,-61
2776,-744,14860,-440,130,-66
2760,-676,14956,-449,157,-61
2688,-620,14804,-431,123,-68
2664,-660,14768,-440,138,-42
2728,-588,14844,-436,140,-69
2544,-588,14696,-448,177,-49
2640,-584,14832,-427,160,-71
2652,-644,14792,-455,151,-68
2552,-728,14812,-451,112,-65
2640,-660,14864,-432,157,-53
2588,-676,14772,-428,159,-59
2616,-592,14836,-430,169,-52
2636,-668,14780,-427,142,-55
2524,-560,14948,-423,158,-51
2560,-564,14704,-441,156,-71
2644,-584,14816,-433,155,-63
2556,-656,14748,-436,146,-78
2580,-608,14868,-428,122,-61
2668,-700,14732,-439,140,-67
2632,-620,14808,-426,151,-63
2644,-580,14760,-446,146,-63
2616,-664,14840,-446,129,-46
2708,-576,14876,-424,151,-60
2604,-632,14724,-462,154,-80
2592,-744,14676,-438,120,-63
2632,-716,14752,-440,139,-68
2632,-640,14820,-438,179,-71
2648,-692,14832,-436,161,-44
2660,-572,14908,-435,152,-71
2636,-676,14676,-449,133,-61
2700,-600,14728,-451,145,-80
2616,-552,14832,-424,146,-72
2640,-664,14752,-435,124,-69
2628,-560,14720,-437,153,-89
2596,-620,14744,-454,136,-61
2620,-588,14852,-422,131,-62
2648,-600,14764,-432,141,-67
2712,-660,14844,-441,128,-62
2748,-592,14856,-439,144,-53
2632,-688,14736,-431,166,-60
2612,-672,14868,-452,149,-80
2724,-536,14868,-437,134,-87
2636,-652,14692,-456,158,-52
2692,-572,14772,-454,122,-57
2616,-596,14936,-416,144,-54
2672,-608,14884,-431,154,-69
2708,-688,14772,-437,152,-54
2688,-608,14900,-443,147,-65
2668,-672,14896,-431,142,-50
2568,-736,14624,-424,148,-63
2552,-592,14748,-453,148,-78
2584,-720,14872,-439,149,-52
2584,-684,14848,-449,144,-85
2744,-692,14728,-449,153,-63
2636,-644,14724,-430,144,-69
2592,-596,14772,-437,128,-91
2672,-576,14772,-428,120,-69
2552,-592,14896,-450,143,-55
2596,-696,14800,-432,142,-59
2632,-576,14832,-434,145,-63
2668,-684,14656,-424,136,-50
2696,-636,14788,-431,140,-60
2768,-656,14628,-433,135,-64
2620,-620,14752,-425,146,-70
2616,-576,14576,-422,106,-94
2636,-704,14748,-433,146,-70
2764,-712,14824,-447,123,-81
2648,-620,14760,-447,154,-83
2632,-644,14692,-433,151,-67
2528,-672,14776,-425,153,-53
2604,-764,14836,-439,138,-88
2628,-608,14928,-438,148,-71
2584,-708,14600,-431,116,-65
2692,-628,14556,-433,128,-70
2604,-596,14960,-441,128,-54
2604,-644,14772,-435,138,-53
2712,-688,14748,-445,138,-48
2604,-756,14676,-441,154,-59
2576,-568,14764,-438,145,-78
2660,-688,14864,-460,166,-56
2584,-648,14744,-434,153,-63
2648,-680,14708,-427,160,-67
2604,-680,14716,-423,141,-52
2656,-612,14824,-447,140,-49
2672,-640,14812,-419,161,-67
2668,-672,14832,-452,111,-75
2624,-648,14800,-453,125,-46
2724,-712,14688,-452,121,-41
2616,-540,14816,-434,120,-62
2636,-616,14752,-451,115,-72
2692,-700,14908,-436,177,-64
2684,-704,14796,-425,167,-42
2628,-684,14860,-447,132,-64
2672,-636,14704,-450,134,-62
2664,-620,14808,-436,144,-38
2720,-688,14772,-437,124,-75
2628,-592,14780,-443,145,-52
2616,-624,14764,-423,162,-59
2680,-588,14740,-433,125,-44
2632,-684,14776,-439,159,-74
2548,-568,14808,-434,148,-60
2656,-684,14824,-435,134,-69
2656,-636,14816,-415,131,-67
2716,-640,14672,-437,152,-85
2636,-608,14884,-440,134,-55
2644,-616,14764,-429,152,-74
2700,-620,14776,-432,132,-70
2672,-652,14848,-430,161,-69
2644,-688,14776,-436,157,-61
2668,-616,14868,-441,143,-77
2628,-612,14840,-429,145,-68
2548,-612,14752,-432,129,-79
2680,-696,14828,-421,147,-66
2640,-616,14816,-453,136,-44
2628,-604,14768,-441,132,-84
2644,-672,14848,-442,154,-70
2572,-628,14804,-411,154,-72
2592,-616,14760,-432,181,-56
2680,-572,14712,-430,125,-51
2724,-628,14784,-445,124,-59
2728,-576,14756,-437,153,-48
2748,-600,14848,-450,150,-74
2648,-600,14796,-426,143,-64
2616,-648,14864,-437,126,-66
2608,-572,14872,-426,148,-63
2620,-624,14852,-455,143,-55
2540,-648,14728,-445,126,-68
2544,-616,14672,-441,148,-49
2660,-680,14748,-440,125,-48
2728,-680,14828,-435,133,-66
2580,-724,14908,-445,117,-72
2700,-636,14852,-419,150,-46
2676,-624,14852,-446,141,-60
2672,-712,14780,-446,140,-61
2668,-700,14816,-423,156,-70
2568,-600,14660,-451,144,-68
2592,-616,14768,-437,138,-60
2592,-692,14884,-437,138,-92
2692,-656,14696,-444,150,-76
2624,-584,14768,-439,143,-77
2640,-624,14812,-438,142,-61
2636,-648,14800,-428,166,-58
2624,-672,14672,-435,163,-50
2540,-688,14772,-446,141,-63
2732,-684,14888,-437,122,-70
2620,-600,14724,-446,138,-54
2688,-532,14824,-449,126,-51
2716,-712,14764,-443,129,-74
2600,-552,14888,-427,133,-64
2768,-636,14972,-435,147,-57
2560,-652,14772,-444,136,-64
2684,-544,14756,-438,161,-54
2652,-672,14808,-446,155,-77
2612,-616,14880,-434,149,-61
2628,-608,14896,-442,133,-58
2640,-592,14920,-432,153,-79
2620,-672,14784,-441,135,-70
2780,-656,14684,-452,146,-49
2664,-652,14860,-441,157,-57
2656,-700,14792,-433,115,-58
2616,-548,14968,-435,134,-70
2660,-556,14804,-447,120,-62
2676,-680,14808,-434,121,-72
2604,-636,14872,-435,133,-64
2684,-660,14868,-432,145,-44
2664,-588,14696,-436,146,-39
2724,-652,14716,-457,150,-49
2716,-616,14744,-441,125,-55
2548,-608,14800,-430,133,-42
2608,-672,14724,-449,127,-80
2680,-596,14800,-422,168,-65
2668,-724,14688,-440,138,-63
2604,-600,14784,-439,150,-56
2616,-600,14828,-426,134,-56
2656,-652,14944,-430,160,-91
2616,-640,14728,-428,128,-51
2612,-664,14672,-452,151,-65
2552,-684,14748,-420,130,-59
2596,-556,14704,-428,127,-53
2588,-580,14780,-430,121,-78
2604,-584,14892,-456,138,-37
2640,-572,14748,-427,134,-50
2584,-576,14632,-444,124,-65
2744,-704,14768,-442,137,-61
2668,-588,14864,-433,162,-71
2676,-568,14788,-447,158,-73
2640,-652,14724,-434,140,-66
2612,-616,14684,-435,132,-65
2632,-680,14792,-436,131,-65
2692,-656,14712,-446,131,-43
2572,-732,14720,-441,138,-69
2632,-636,14792,-448,115,-44
2616,-536,14760,-439,121,-73
2628,-728,14672,-432,131,-64
2640,-652,14692,-452,122,-58
2612,-656,14812,-425,139,-81
2536,-760,14824,-436,132,-56
2624,-640,14808,-435,132,-48
2668,-680,14860,-447,180,-61
2568,-600,14720,-460,161,-50
2692,-696,14804,-446,148,-48
2656,-632,14784,-428,170,-90
2792,-692,14976,-434,150,-65
2584,-624,14976,-420,161,-65
2696,-632,14788,-428,136,-62
2676,-640,14928,-437,147,-56
2668,-684,14760,-433,118,-74
2584,-716,14744,-432,139,-56
2588,-648,14808,-474,134,-57
2628,-652,14684,-448,132,-51
2608,-660,14776,-445,143,-66
2628,-684,14832,-423,134,-63
2740,-688,14760,-438,147,-74
2560,-616,14968,-447,111,-71
2616,-604,14768,-425,148,-75
2648,-584,14836,-442,122,-90
2632,-660,14968,-426,164,-81
2604,-624,14776,-422,130,-57
2592,-644,14944,-432,153,-61
2692,-640,14752,-429,133,-69
2628,-652,14792,-443,163,-88
2728,-656,14892,-421,155,-63
2736,-576,14692,-446,146,-57
2660,-576,14844,-449,145,-69
2616,-552,14852,-437,155,-91
2616,-692,14728,-459,164,-46
2576,-700,14724,-442,139,-67
2716,-628,14764,-441,174,-65
2608,-648,14880,-439,151,-49
2516,-596,14852,-426,128,-58
2564,-652,14772,-440,138,-59
2648,-628,14680,-436,145,-56
2608,-588,14668,-419,134,-73
2636,-560,14868,-433,144,-66
2620,-592,14760,-436,155,-84
2572,-624,14812,-420,125,-84
2644,-700,14936,-441,135,-71
2640,-664,14760,-431,159,-40
2508,-640,14796,-423,137,-73
2692,-708,14796,-456,133,-75
2588,-616,14760,-427,149,-59
2640,-640,14864,-429,130,-79
2636,-608,14680,-438,179,-64
2604,-700,14804,-444,149,-74
2648,-652,14712,-441,130,-77
2624,-708,14716,-436,148,-71
2584,-688,14764,-442,155,-72
2656,-620,14704,-427,145,-55
2640,-752,14880,-442,164,-54
2604,-668,14824,-451,139,-70
2736,-728,14740,-453,146,-63
2668,-664,14808,-447,125,-53
2660,-644,14712,-436,136,-94
2588,-556,14828,-439,163,-59
2696,-600,14692,-441,137,-71
2664,-600,14872,-439,123,-75
2632,-652,14928,-445,147,-62
2684,-592,14908,-444,158,-66
2576,-720,14940,-451,127,-64
2668,-580,14820,-437,148,-64
2648,-616,14820,-435,136,-54
2632,-708,14828,-432,137,-77
2744,-604,14808,-441,136,-80
2636,-624,14796,-435,132,-78
2660,-648,14844,-415,149,-61
2704,-596,14768,-437,163,-75
2676,-616,14836,-427,163,-65
2756,-624,14688,-435,133,-59
2748,-652,14784,-435,138,-78
2736,-740,14760,-430,130,-73
2584,-648,14772,-436,134,-64
2648,-632,14740,-425,145,-83
2640,-688,14872,-439,146,-71
2668,-632,14840,-423,145,-52
2588,-648,14836,-417,137,-43
2668,-644,14660,-450,124,-49
2648,-708,14980,-442,150,-66
2568,-700,14752,-433,134,-77
2748,-664,14728,-436,132,-85
2676,-676,14868,-442,156,-84
2640,-560,14944,-425,130,-64
2568,-692,14804,-443,152,-63
2752,-584,14768,-447,146,-69
2660,-644,14780,-438,156,-64
2572,-604,14796,-420,143,-47
2644,-664,14768,-436,125,-69
2656,-704,14816,-441,135,-70
2632,-600,14588,-424,145,-57
2580,-560,14748,-452,145,-86
2764,-652,14708,-441,129,-73
2632,-676,14796,-430,147,-57
2748,-624,14760,-428,125,-65
2648,-684,14740,-422,146,-51
2576,-568,14760,-431,139,-62
2620,-576,14720,-440,143,-40
2704,-636,14740,-461,123,-88
2688,-592,14820,-451,144,-80
2648,-648,14848,-415,156,-45
2592,-608,14772,-432,137,-69
2684,-612,14732,-453,154,-83
2720,-692,14888,-425,156,-54
2648,-712,14892,-444,135,-66
2736,-660,14804,-431,173,-63
2620,-612,14860,-432,140,-77
2572,-632,14668,-442,167,-54
2680,-704,14716,-438,126,-71
2568,-764,14784,-438,147,-86
2724,-624,14816,-428,137,-54
2648,-716,14860,-439,141,-68
2696,-576,14760,-436,101,-70
2668,-596,14728,-439,127,-45
2552,-708,14800,-444,142,-75
2648,-580,14740,-436,177,-63
2640,-588,14756,-435,162,-57
2676,-732,14744,-455,108,-47
2608,-648,14884,-451,143,-78
2684,-608,14868,-440,134,-77
2688,-696,14884,-431,165,-63
2644,-664,14700,-428,152,-68
2728,-648,14796,-449,155,-50
2668,-588,14684,-432,175,-78
2552,-624,14904,-440,149,-59
2584,-636,14756,-427,125,-84
2680,-704,14808,-442,151,-53
2700,-528,14692,-436,139,-76
2652,-628,14908,-440,138,-80
2452,-512,14816,-442,149,-87
2668,-720,14864,-412,164,-55
2580,-736,14744,-440,146,-74
2736,-652,14812,-441,161,-60
2640,-564,14724,-447,155,-86
2756,-668,14776,-449,148,-68
2592,-652,14792,-439,136,-37
2612,-672,14860,-450,141,-60
2716,-592,14888,-447,154,-62
2648,-644,14812,-432,168,-96
2616,-668,14848,-470,155,-70
2652,-676,14776,-431,132,-81
2616,-664,14692,-420,158,-60
2644,-708,14744,-444,151,-56
2608,-544,14936,-427,134,-67
2684,-648,14860,-437,166,-72
2708,-640,15036,-431,120,-77
2712,-656,14768,-429,148,-71
2628,-632,14868,-435,112,-70
2716,-624,14844,-423,131,-79
2732,-644,14692,-440,152,-77
2676,-696,14860,-449,134,-72
2684,-604,14764,-449,122,-51
2700,-700,14848,-434,147,-70
2744,-676,14780,-436,165,-70
2692,-640,14724,-424,142,-77
2732,-624,14760,-446,132,-62
2600,-624,14964,-433,162,-58
2680,-736,14716,-440,126,-77
2764,-644,14716,-443,146,-56
2608,-544,14728,-424,148,-56
2648,-656,14648,-454,128,-54
2732,-560,14816,-450,137,-73
2580,-700,14796,-427,137,-68
2632,-668,14848,-447,156,-55
2624,-632,14824,-452,139,-74
2696,-576,14708,-452,132,-70
2656,-632,14640,-438,120,-85
2544,-712,14820,-454,121,-70
2688,-620,14700,-434,152,-65
2668,-536,14844,-435,141,-86
2712,-508,14760,-440,149,-72
2708,-672,14800,-424,145,-71
2636,-644,14736,-435,150,-58
2684,-664,14820,-432,137,-63
2696,-632,14920,-442,158,-68
2580,-652,14820,-445,153,-82
2692,-664,14768,-429,132,-93
2692,-632,14740,-438,149,-63
2712,-700,14828,-438,111,-71
2544,-624,14844,-460,126,-58
2744,-700,14860,-439,160,-65
2692,-612,14732,-425,148,-72
2564,-696,14812,-425,128,-68
2604,-600,14664,-437,118,-56
2648,-612,14872,-438,161,-78
2676,-732,14756,-427,154,-59
2644,-640,14896,-422,151,-56
2760,-684,14708,-441,171,-54
2652,-612,14884,-417,154,-44
2660,-728,14844,-432,152,-73
2692,-688,14752,-452,155,-65
2524,-676,14836,-417,161,-63
2600,-684,14712,-442,148,-74
2692,-716,14772,-437,130,-60
2644,-584,14824,-433,152,-80
2612,-760,14776,-443,140,-66
2616,-664,14692,-444,169,-53
2596,-540,14748,-435,138,-49
2624,-568,14872,-439,146,-70
2692,-728,14724,-436,167,-54
2524,-800,14816,-438,143,-78
2688,-648,14824,-416,124,-66
2608,-596,14704,-431,151,-74
2612,-612,14808,-432,148,-70
2664,-592,14724,-433,109,-65
2704,-668,14848,-457,149,-63
2560,-572,14808,-430,138,-57
2704,-628,14764,-446,140,-59
2520,-628,14760,-435,118,-66
2584,-612,14824,-429,161,-67
2656,-592,14632,-441,150,-52
2636,-660,14780,-434,123,-78
2712,-664,14800,-444,148,-70
2604,-560,14816,-441,155,-75
2708,-708,14736,-426,129,-84
2600,-624,14792,-440,140,-67
2660,-652,14716,-429,127,-76
2520,-588,14764,-431,128,-88
2592,-692,14744,-426,148,-64
2680,-632,14648,-436,176,-49
2608,-764,14908,-440,163,-64
2684,-616,14780,-447,168,-67
2632,-572,14920,-434,107,-55
2604,-712,14832,-434,137,-66
2652,-616,14780,-420,119,-81
2568,-644,14756,-450,144,-88
2656,-688,14784,-442,146,-50
2672,-608,14804,-441,140,-52
2696,-712,14728,-434,141,-59
2568,-604,14876,-451,146,-62
2668,-756,14732,-440,122,-43
2684,-684,14716,-434,120,-68
2576,-704,14728,-446,137,-62
2620,-700,14880,-435,154,-80
2624,-648,14596,-426,138,-50
2744,-616,14824,-447,127,-62
2556,-664,14836,-437,118,-49
2612,-716,14756,-441,123,-53
2516,-712,14756,-427,140,-43
2664,-648,14896,-450,170,-61
2680,-616,14716,-441,167,-55
2700,-660,14744,-453,141,-86
2616,-636,14752,-439,139,-63
2576,-584,14808,-428,153,-90
2604,-584,14880,-432,150,-58
2592,-532,14776,-422,139,-58
2564,-656,14636,-439,151,-52
2704,-648,14888,-433,135,-67
2720,-676,14876,-419,123,-63
2668,-624,14776,-456,127,-69
2624,-644,14816,-439,152,-55
2628,-612,14812,-445,140,-72
2660,-604,14768,-429,153,-67
2616,-620,14700,-442,138,-41
2720,-612,14664,-438,149,-75
2592,-676,14652,-426,174,-81
2744,-604,14824,-435,170,-62
2552,-676,14868,-410,125,-74
2676,-636,14832,-461,161,-65
2764,-576,14640,-420,133,-77
2620,-656,14736,-421,130,-73
2644,-572,14788,-425,121,-86
2680,-720,14776,-431,140,-72
2696,-648,14820,-438,159,-52
2612,-716,14832,-435,149,-75
2696,-664,14820,-443,142,-75
2688,-692,14784,-459,132,-63
2600,-716,14892,-441,128,-49
2764,-652,14836,-426,164,-56
2580,-600,14848,-440,134,-64
2624,-676,14816,-431,114,-71
2652,-664,14872,-448,149,-75
2572,-664,14624,-428,152,-52
2648,-500,14848,-418,143,-67
2676,-664,14908,-442,145,-64
2696,-532,14792,-442,119,-52
2696,-616,14768,-435,151,-50
2632,-652,14776,-453,150,-82
2604,-676,14656,-424,136,-46
2584,-696,14804,-420,140,-59
2764,-696,14732,-436,144,-40
2580,-528,14716,-434,145,-75
2624,-592,14772,-446,150,-44
2612,-580,14772,-434,153,-67
2592,-748,14744,-453,120,-73
2640,-628,14764,-426,159,-78
2648,-628,14752,-434,153,-57
2624,-612,14808,-425,147,-55
2616,-620,14796,-446,129,-28
2736,-600,14788,-465,149,-53
2564,-580,14860,-436,131,-95
2720,-632,14720,-450,143,-57
2568,-636,14716,-439,153,-66
2560,-592,14764,-438,128,-73
2632,-616,14804,-430,125,-72
2712,-624,14644,-432,145,-53
2640,-700,14760,-440,139,-79
2612,-708,14776,-429,148,-69
2660,-620,14752,-440,150,-61
2676,-768,14796,-447,132,-74
2688,-624,14804,-456,136,-62
2688,-700,14872,-444,142,-69
2692,-680,14828,-442,131,-65
2604,-564,14852,-436,141,-84
2616,-660,14772,-442,147,-91
2628,-648,14868,-449,137,-83
2652,-596,14780,-428,136,-69
2704,-648,14872,-422,131,-57
2716,-652,14796,-442,121,-69
2660,-644,14616,-448,144,-81
2624,-588,14744,-453,117,-63
2724,-620,15036,-435,131,-85
2604,-656,14808,-448,167,-59
2680,-708,14812,-441,129,-63
2608,-640,14852,-433,140,-64
2572,-672,14772,-442,137,-90
2504,-576,14720,-448,158,-40
2580,-628,14784,-448,124,-57
2600,-640,14640,-437,130,-79
2568,-744,14708,-435,151,-62
2692,-648,14780,-428,160,-69
2660,-700,14880,-461,164,-65
2644,-680,14684,-454,143,-65
2588,-604,14740,-453,142,-68
2612,-604,14772,-432,145,-78
2628,-608,14824,-433,144,-63
2688,-644,14724,-431,179,-75
2592,-628,14776,-430,127,-83
2580,-592,14832,-452,145,-72
2584,-584,14832,-441,142,-67
2600,-580,14740,-428,160,-60
2512,-644,15036,-442,131,-81
2608,-600,14728,-429,123,-53
2716,-656,14924,-430,149,-67
2616,-636,14732,-446,117,-76
2636,-616,14824,-451,152,-78
2600,-668,14816,-446,155,-58
2616,-632,14724,-436,158,-50
2572,-712,14988,-445,140,-32
2664,-672,14692,-448,127,-56
2656,-612,14924,-430,133,-58
2660,-660,14760,-423,144,-47
2768,-640,14700,-422,141,-59
2692,-580,14852,-436,150,-61
2640,-616,14696,-427,168,-52
2660,-668,14708,-443,162,-63
2688,-628,14752,-447,146,-76
2640,-604,14752,-436,148,-48
2520,-600,14688,-433,116,-65
2648,-668,14812,-458,172,-67
2580,-612,14772,-462,149,-57
2560,-604,14776,-443,154,-55
2636,-556,14912,-440,132,-62
2676,-652,14816,-433,160,-45
2600,-604,14692,-430,136,-79
2652,-680,14908,-436,159,-47
2588,-640,14880,-421,163,-57
2660,-704,14916,-433,168,-69
2636,-568,14616,-436,144,-64
2592,-660,14960,-452,139,-71
2628,-564,14796,-437,151,-56
2592,-712,14736,-445,173,-63
2744,-600,14572,-453,136,-56
2592,-692,14664,-436,147,-50
2692,-672,14888,-414,117,-64
2616,-652,14832,-428,138,-59
2692,-684,14760,-433,146,-48
2724,-584,14876,-435,141,-65
2604,-620,14716,-430,158,-53
2700,-652,14728,-435,145,-50
2604,-600,14880,-443,119,-75
2592,-664,14748,-435,147,-97
2544,-668,14740,-467,142,-67
2732,-668,14688,-434,139,-68
2660,-680,14792,-444,165,-71
2688,-636,14672,-417,142,-67
2668,-636,14740,-446,157,-63
2572,-656,14616,-444,118,-65
2668,-664,14776,-460,122,-57
2592,-600,14772,-437,131,-55
2648,-672,14744,-433,125,-59
2632,-668,14672,-425,144,-49
2640,-604,14744,-429,123,-77
2628,-592,14768,-434,134,-84
2616,-584,14788,-441,133,-81
2760,-680,14852,-422,114,-66
2660,-568,14784,-441,122,-69
2636,-556,14840,-441,155,-64
2660,-612,14752,-434,131,-66
2612,-604,14836,-429,145,-58
2628,-596,14772,-428,141,-69
2680,-568,14792,-428,146,-65
2532,-656,14800,-457,147,-69
2624,-720,14816,-434,124,-67
2648,-568,14712,-446,166,-94
2704,-644,14760,-429,143,-86
2656,-616,14844,-460,167,-65
2604,-620,14788,-439,158,-42
2696,-600,14808,-445,134,-43
2624,-672,14880,-447,110,-57
2588,-632,14760,-426,149,-76
2564,-688,14800,-448,156,-80
2700,-676,14724,-442,142,-61
2652,-740,14764,-449,133,-81
2612,-616,14728,-444,141,-62
2668,-680,14892,-440,179,-67
2636,-592,14860,-436,171,-72
2604,-584,14764,-448,170,-49
2620,-688,14944,-451,152,-61
2720,-544,14684,-428,140,-79
2592,-464,14820,-440,138,-43
2672,-624,14716,-437,151,-88
2648,-568,14784,-441,149,-46
2672,-688,14724,-451,156,-56
2752,-704,14860,-447,149,-83
2636,-636,14772,-442,131,-70
2744,-656,14848,-434,148,-57
2552,-644,14768,-462,117,-44
2732,-608,14888,-446,157,-74
2584,-552,14564,-451,137,-85
2624,-676,14796,-438,155,-67
2612,-648,14868,-428,168,-49
2632,-592,14692,-427,131,-62
2560,-692,14904,-446,149,-85
2672,-580,14796,-432,147,-79
2656,-532,14772,-440,133,-66
2672,-676,14652,-435,159,-76
2692,-584,14732,-432,142,-51
2604,-556,14768,-436,131,-54
2596,-640,14768,-415,151,-63
2708,-648,14844,-435,135,-61
2620,-652,14696,-431,164,-68
2524,-624,14736,-423,126,-79
2700,-624,14720,-440,140,-86
2644,-612,14896,-435,146,-67
2692,-596,14704,-418,131,-64
2680,-700,14808,-433,153,-78
2692,-520,14640,-418,126,-64
2564,-696,14760,-428,148,-67
2628,-620,14792,-417,178,-55
2660,-640,14800,-446,159,-77
2612,-668,14748,-439,147,-84
2712,-552,14964,-422,148,-98
2604,-696,14892,-436,137,-63
2744,-616,14832,-446,147,-49
2588,-648,14844,-448,137,-54
2616,-648,14872,-442,143,-75
2724,-616,14876,-428,151,-40
2672,-656,14876,-425,149,-50
2584,-636,14728,-451,125,-43
2708,-648,14756,-450,138,-63
2640,-688,14808,-441,131,-70
2676,-660,14868,-433,147,-70
2644,-660,14752,-427,133,-63
2748,-640,14748,-433,123,-58
2624,-680,14824,-445,139,-40
2712,-672,14836,-449,157,-54
2612,-664,14668,-438,164,-70
2748,-588,14712,-442,120,-65
2652,-568,14756,-445,128,-46
2712,-536,14900,-449,143,-66
2648,-588,14860,-438,133,-48
2660,-644,14896,-450,143,-51
2780,-732,14752,-448,126,-59
2616,-640,14696,-429,131,-58
2648,-540,14788,-423,192,-63
2536,-596,14800,-429,131,-66
2696,-552,14804,-439,133,-70
2584,-660,14764,-434,147,-53
2632,-700,14732,-436,158,-68
2564,-636,14784,-438,142,-76
2668,-672,14708,-445,159,-68
2664,-576,14732,-455,159,-74
2660,-624,14760,-423,171,-56
2660,-724,14916,-449,146,-61
2624,-644,14712,-451,177,-72
2596,-660,14776,-437,140,-51
2600,-728,14636,-447,135,-62
2680,-580,14744,-415,161,-65
2568,-588,14688,-433,139,-38
2648,-632,14864,-447,130,-56
2504,-716,14592,-440,148,-35
2680,-680,14800,-456,148,-54
2612,-632,14736,-444,140,-74
2780,-692,14760,-452,164,-61
2672,-536,14884,-449,140,-57
2648,-640,14844,-437,160,-72
2588,-624,14840,-452,123,-60
2728,-656,14788,-418,144,-65
2696,-652,14804,-435,125,-80
2688,-724,14720,-448,160,-76
2556,-564,14908,-445,150,-74
2572,-652,14876,-452,158,-69
2572,-652,14788,-434,158,-50
2724,-652,14852,-432,156,-55
2540,-576,14752,-421,138,-57
2624,-660,14732,-432,119,-55
2656,-636,14720,-437,140,-64
2704,-696,14852,-426,144,-62
2592,-612,14716,-449,156,-63
2688,-632,14840,-446,176,-43
2596,-596,14768,-438,145,-71
2664,-636,14808,-442,140,-66
2608,-596,14756,-436,143,-58
2740,-668,14888,-439,145,-92
2712,-584,14804,-430,128,-63
2700,-664,14636,-430,143,-69
2700,-692,14764,-437,128,-63
2580,-596,14760,-436,134,-82
2576,-612,14784,-450,156,-93
2524,-676,14712,-436,155,-60
2648,-612,14720,-428,148,-72
2620,-616,14812,-436,148,-79
2536,-688,14744,-448,157,-52
2536,-612,14764,-429,144,-54
2644,-580,14844,-455,134,-72
2608,-600,14900,-435,131,-48
2552,-596,14816,-420,129,-46
2604,-664,14776,-438,146,-43
2592,-648,14864,-435,134,-74
2688,-604,14764,-442,145,-48
2576,-688,14892,-426,142,-58
2660,-604,14888,-455,152,-92
2624,-604,14652,-437,133,-70
2588,-588,14848,-444,147,-84
2664,-680,14736,-455,139,-53
2672,-632,14796,-421,159,-52
2756,-592,14712,-422,159,-44
2584,-664,14768,-447,151,-70
2608,-664,14820,-439,116,-76
2656,-648,14808,-428,152,-36
2764,-724,14780,-444,172,-72
2608,-640,14788,-438,167,-77
2696,-696,14692,-449,141,-72
2532,-668,14820,-428,149,-54
2624,-656,14820,-432,129,-64
2800,-648,14740,-440,136,-69
2632,-700,14968,-422,145,-81
2672,-640,14840,-456,154,-58
2612,-596,14800,-436,139,-67
2692,-684,14864,-449,158,-81
2620,-612,14700,-444,126,-58
2692,-604,14708,-416,138,-66
2716,-612,14864,-429,117,-84
2608,-576,14848,-452,149,-39
2676,-652,14760,-441,183,-61
2568,-644,14972,-459,139,-66
2620,-644,14880,-439,131,-74
2636,-660,14832,-435,129,-47
2664,-676,14920,-433,148,-87
2700,-612,14808,-432,151,-54
2636,-584,14792,-435,135,-54
2644,-632,14748,-445,140,-81
2636,-676,14880,-435,138,-72
2800,-644,14796,-445,132,-54
2620,-652,14732,-438,158,-65
2676,-688,14836,-443,133,-82
2640,-636,14704,-440,137,-42
2648,-736,14728,-449,140,-87
2704,-720,14724,-456,154,-63
2572,-612,14900,-432,149,-84
2620,-688,14864,-428,122,-61
2660,-700,14764,-449,126,-76
2608,-612,14720,-439,143,-52
2528,-612,14664,-450,164,-69
2620,-692,14876,-438,154,-60
2660,-548,14864,-422,146,-40
2632,-680,14856,-439,130,-83
2736,-656,14816,-443,147,-76
2676,-632,14896,-448,136,-67
2680,-640,14692,-452,137,-70
2720,-560,14764,-428,159,-65
2592,-580,14648,-439,144,-65
2620,-640,14724,-444,148,-63
2612,-636,14752,-440,136,-72
2528,-552,14900,-426,139,-66
2584,-604,14808,-434,141,-43
2680,-752,14672,-421,136,-68
2600,-592,14812,-436,127,-77
2692,-648,14832,-443,167,-71
2660,-640,14872,-435,151,-58
2692,-656,14744,-447,134,-79
2736,-600,14720,-451,161,-61
2640,-676,14788,-427,130,-61
2652,-632,14904,-434,166,-92
2744,-684,14760,-444,117,-75
2660,-664,14852,-461,154,-76
2728,-628,14768,-443,128,-41
2620,-584,14924,-447,147,-46
2636,-640,14808,-436,167,-79
2588,-592,14880,-419,146,-57
2540,-644,14724,-423,130,-66
2652,-628,14844,-450,146,-79
2624,-688,14700,-451,129,-46
2616,-596,14772,-440,124,-56
2544,-636,14796,-430,145,-80
2600,-676,14692,-433,133,-64
2608,-648,14728,-440,138,-59
2656,-708,14664,-420,138,-76
2572,-588,14828,-449,145,-55
2668,-660,14720,-433,134,-56
2624,-680,14720,-431,158,-47
2668,-600,14744,-435,135,-65
2628,-636,14668,-436,134,-43
2564,-564,14720,-422,139,-71
2620,-664,14872,-419,151,-57
2636,-716,14908,-452,138,-62
2684,-548,14860,-454,154,-81
2732,-632,14852,-432,155,-65
2580,-624,14788,-438,159,-69
2612,-696,14804,-441,132,-62
2604,-696,14968,-447,166,-73
2644,-636,14824,-442,151,-46
2632,-644,14772,-434,145,-28
2652,-704,14764,-423,141,-48
2644,-700,14748,-430,120,-70
2700,-620,14752,-425,158,-58
2588,-620,14880,-435,144,-64
2652,-660,14964,-450,137,-67
2616,-636,14760,-439,163,-61
2552,-636,14708,-427,146,-41
2564,-608,14964,-438,159,-58
2616,-660,14924,-438,153,-71
2524,-612,14740,-424,144,-58
2636,-592,14904,-430,128,-60
2680,-804,14732,-439,153,-44
2624,-620,14740,-435,136,-54
2564,-604,14768,-426,115,-59
2548,-652,14812,-438,138,-76
2568,-672,14780,-437,156,-63
2628,-696,14716,-425,137,-98
2608,-600,14780,-428,140,-74
2656,-636,14928,-438,145,-58
2664,-684,14840,-443,137,-40
2648,-616,14808,-454,156,-69
2624,-616,14812,-438,144,-65
2600,-664,14776,-431,181,-59
2668,-708,14700,-446,149,-57
2588,-684,14836,-448,169,-52
2660,-652,14772,-442,139,-64
2668,-624,14824,-443,139,-49
2692,-552,14700,-447,176,-56
2628,-732,14876,-442,146,-70
2652,-660,14888,-431,118,-70
2688,-632,14772,-444,122,-63
2636,-632,14756,-438,111,-48
2532,-604,14736,-448,119,-42
2600,-664,14792,-443,132,-61
2672,-616,14760,-451,127,-68
2600,-620,14880,-440,141,-57
2608,-660,14832,-437,157,-65
2620,-640,14640,-437,125,-68
2500,-660,14824,-441,159,-80
2592,-716,14636,-454,152,-62
2644,-704,14808,-438,152,-62
2644,-648,14824,-436,145,-80
2628,-656,14832,-428,148,-69
2652,-684,14880,-437,113,-61
2648,-620,14740,-436,153,-72
2572,-708,14760,-441,147,-60
2600,-636,14680,-426,160,-72
2632,-684,14760,-444,157,-66
2616,-652,14812,-441,127,-45
2596,-648,14736,-426,132,-72
2628,-672,14832,-442,135,-76
2664,-656,14876,-438,115,-72
2696,-616,14780,-422,143,-60
2648,-660,14668,-443,151,-97
2600,-588,14764,-434,146,-55
2608,-636,14868,-434,180,-75
2660,-524,14912,-432,130,-56
2588,-600,14776,-443,170,-49
2624,-704,14816,-435,134,-74
2724,-612,14780,-421,118,-50
2556,-652,14672,-453,133,-83
2652,-688,14764,-453,151,-72
2700,-640,14744,-445,147,-52
2624,-656,14788,-425,160,-43
2612,-664,14680,-436,112,-62
2616,-580,14732,-436,156,-67
2608,-708,14816,-412,136,-55
2708,-624,14672,-425,136,-54
2648,-624,14832,-421,153,-75
2668,-536,14648,-440,118,-73
2652,-692,14696,-444,158,-53
2696,-592,14684,-435,136,-53
2616,-648,14724,-442,127,-57
2568,-628,14728,-439,148,-61
2656,-588,14712,-433,133,-52
2744,-580,14848,-419,143,-62
2680,-716,14592,-438,168,-64
2596,-660,14784,-423,153,-63
2660,-576,14744,-438,165,-58
2596,-612,14852,-440,132,-62
2608,-676,14760,-430,130,-62
2728,-640,14764,-437,157,-66
2712,-652,14820,-444,116,-78
2572,-628,14828,-456,138,-75
2688,-628,14844,-420,134,-59
2680,-648,14900,-432,127,-72
2648,-736,14804,-446,145,-61
2592,-636,14900,-449,155,-72
2604,-676,14872,-425,129,-69
2620,-700,14796,-452,149,-71
2556,-576,14880,-448,123,-38
2652,-568,14852,-427,140,-74
2636,-584,14864,-435,161,-46
2692,-588,14888,-425,126,-81
2620,-692,14768,-431,146,-79
2700,-544,14724,-444,138,-89
2596,-604,14780,-420,132,-49
2572,-640,14736,-445,122,-67
2584,-632,14776,-433,141,-74
2684,-576,14792,-446,156,-78
2668,-612,14684,-461,156,-43
2672,-764,14716,-430,125,-84
2640,-660,14732,-419,138,-58
2696,-592,14760,-441,129,-69
2644,-640,14800,-446,153,-55
2652,-692,14756,-452,140,-93
2592,-720,14900,-452,122,-82
2648,-576,14884,-445,156,-49
2680,-720,14880,-429,137,-57
2624,-548,14796,-431,121,-93
2632,-628,14784,-430,136,-62
2680,-512,14748,-442,122,-51
2612,-532,14676,-457,150,-63
2620,-560,14824,-448,162,-52
2620,-664,14704,-425,151,-79
2688,-656,14900,-432,154,-57
2592,-668,14732,-422,145,-58
2596,-584,14728,-445,168,-75
2712,-616,14740,-439,109,-71
2668,-660,14844,-455,140,-68
2680,-688,14796,-436,131,-89
2756,-700,14888,-421,150,-50
2584,-748,14836,-439,138,-71
2712,-680,14832,-438,162,-64
2628,-644,14744,-443,142,-67
2600,-592,14868,-439,143,-64
2624,-640,14744,-435,187,-82
2680,-636,14736,-431,121,-71
2600,-688,14676,-437,150,-27
2584,-548,14800,-437,126,-73
2724,-568,14768,-449,146,-39
2668,-632,14776,-447,141,-58
2684,-664,14768,-446,151,-77
2540,-716,14828,-424,164,-51
2616,-760,14768,-451,119,-87
2656,-612,14836,-437,155,-61
2572,-648,14736,-440,130,-73
2680,-544,14812,-432,127,-78
2680,-648,14844,-429,129,-67
2600,-612,14788,-441,141,-60
2708,-624,14744,-437,164,-60
2668,-640,14816,-454,155,-75
2600,-716,14736,-443,139,-58
2660,-656,14796,-456,166,-61
2700,-684,14764,-441,134,-55
2640,-700,14772,-423,147,-51
2688,-620,14824,-431,142,-67
2696,-616,14816,-430,131,-72
2632,-580,14932,-427,138,-81
2672,-688,14920,-434,141,-54
2628,-572,14744,-452,103,-60
2672,-668,14868,-450,147,-66
2668,-696,14772,-451,125,-49
2784,-616,14796,-438,144,-61
2620,-672,14724,-442,142,-74
2636,-616,14908,-442,128,-82
2612,-592,14740,-444,146,-75
2644,-700,14848,-424,158,-65
2644,-680,14764,-464,124,-68
2668,-648,14712,-445,149,-80
2636,-704,14716,-435,140,-43
2668,-648,14716,-426,165,-69
2660,-564,14780,-447,158,-68
2616,-592,14808,-433,166,-71
2668,-616,14600,-441,130,-67
2532,-668,14784,-444,141,-45
2584,-740,14764,-427,130,-59
2608,-644,14760,-433,175,-67
2652,-684,14752,-432,148,-95
2688,-652,14824,-432,148,-77
2624,-572,14908,-460,146,-75
2628,-624,14708,-443,124,-55
2768,-604,14740,-448,156,-63
2524,-660,14772,-417,135,-58
2660,-608,14884,-434,145,-59
2612,-552,14748,-433,146,-55
2664,-660,14780,-440,134,-32
2652,-616,14772,-457,160,-63
2656,-728,14664,-451,99,-66
2676,-604,14828,-440,156,-51
2708,-620,14884,-450,137,-57
2596,-576,14780,-423,140,-75
2628,-576,14644,-427,130,-43
2624,-656,14720,-429,156,-49
2492,-720,14784,-421,121,-33
2604,-712,14776,-443,162,-80
2600,-588,14752,-460,139,-51
2588,-644,14680,-434,124,-62
2576,-684,14724,-449,135,-67
2676,-652,14744,-445,127,-60
2636,-656,14864,-428,130,-60
2592,-628,14780,-435,155,-81
2668,-648,14776,-446,150,-72
2624,-644,14772,-443,133,-78
2600,-648,14744,-443,144,-39
2616,-684,14732,-431,150,-60
2692,-648,14752,-434,151,-68
2740,-676,14808,-440,165,-55
2628,-732,14820,-433,135,-58
2656,-716,14696,-424,137,-79
2692,-632,14948,-432,129,-62
2604,-668,14800,-435,120,-59
2692,-656,14792,-426,129,-47
2756,-596,14824,-448,137,-76
2580,-752,14668,-441,140,-65
2660,-640,14800,-422,147,-84
2600,-576,14740,-440,139,-82
2492,-696,14884,-424,133,-83
2584,-628,14760,-442,145,-93
2632,-672,14716,-432,163,-64
2604,-592,14824,-429,132,-69
2724,-616,14748,-440,117,-70
2556,-644,14820,-457,130,-53
2700,-640,14872,-429,142,-59
2636,-656,14760,-449,134,-64
2660,-616,14796,-415,158,-46
2480,-688,14744,-432,138,-52
2624,-688,14748,-435,144,-54
2576,-560,14752,-440,153,-96
2636,-636,14764,-439,156,-55
2656,-624,14768,-428,143,-64
2600,-652,14748,-442,151,-57
2496,-600,14812,-446,132,-64
2624,-716,14948,-439,126,-50
2720,-656,14672,-445,155,-67
2576,-500,14724,-431,144,-55
2616,-696,14808,-436,155,-65
2660,-668,14868,-442,138,-55
2636,-572,14788,-451,169,-54
2664,-648,14724,-422,143,-67
2680,-624,14728,-453,178,-68
2656,-696,14888,-416,137,-70
2728,-616,14752,-443,133,-52
2752,-616,14848,-453,154,-53
2620,-652,14772,-431,145,-91
2712,-684,14872,-440,166,-78
2668,-700,14608,-430,130,-62
2808,-632,14700,-449,146,-65
2660,-652,14736,-428,156,-65
2668,-624,14792,-424,132,-65
2664,-628,14652,-434,171,-46
2520,-600,14848,-440,124,-62
2644,-628,14812,-443,128,-57
2624,-664,14772,-454,142,-56
2572,-576,14776,-429,139,-71
2664,-704,14808,-439,118,-73
2652,-588,14724,-428,126,-74
2792,-556,14716,-440,150,-81
2772,-752,14856,-430,139,-61
2688,-644,14692,-451,163,-60
2656,-624,14952,-439,140,-56
2668,-636,14744,-426,169,-58
2756,-688,14744,-442,130,-64
2660,-600,14744,-450,150,-63
2580,-600,14756,-433,145,-70
2676,-588,14912,-445,131,-76
2700,-588,14856,-439,146,-68
2724,-728,14720,-426,159,-65
2624,-648,14640,-447,170,-75
2620,-604,14828,-458,167,-58
2568,-640,14732,-429,140,-68
2708,-716,14748,-433,132,-44
2604,-576,14736,-449,128,-82
2684,-616,14760,-444,143,-70
2576,-700,14756,-444,154,-69
2584,-580,14804,-444,152,-84
2680,-580,14816,-431,174,-64
2584,-648,14764,-426,167,-78
2600,-576,14784,-444,145,-86
2672,-608,14784,-444,144,-52
2672,-688,14692,-438,175,-29
2704,-660,14780,-446,138,-70
2656,-632,14820,-442,160,-70
2684,-576,14904,-430,144,-46
2684,-628,14800,-446,129,-76
2608,-648,14832,-441,120,-65
2604,-676,14644,-430,108,-81
2692,-632,14716,-427,178,-83
2628,-628,14844,-426,125,-72
2688,-560,14824,-440,128,-59
2596,-580,14780,-436,153,-41
2464,-612,14800,-443,135,-57
2656,-652,14808,-452,132,-64
2776,-692,14852,-439,145,-69
2604,-648,14816,-441,159,-60
2604,-684,14820,-446,139,-73
2760,-568,14772,-434,163,-59
2660,-672,14808,-454,137,-57
2648,-596,14768,-445,150,-55
2712,-592,14768,-438,135,-57
2628,-700,14636,-443,115,-54
2616,-672,14944,-425,153,-69
2604,-640,14736,-420,143,-53
2596,-664,14796,-456,140,-66
2600,-732,14744,-418,150,-53
2508,-688,14876,-440,164,-74
2692,-648,14768,-422,144,-91
2616,-616,14828,-440,144,-49
2680,-680,14720,-437,104,-61
2648,-592,14760,-426,136,-69
2648,-576,14820,-428,155,-61
2676,-700,14744,-457,108,-62
2636,-620,14820,-448,130,-59
2620,-704,14812,-429,166,-87
2636,-624,14824,-422,140,-82
2560,-708,14840,-447,141,-84
2696,-600,14808,-432,144,-69
2516,-632,14572,-425,140,-77
2700,-604,14732,-434,131,-74
2704,-652,14900,-429,142,-58
2528,-652,14812,-443,162,-47
2664,-652,14796,-447,127,-69
2648,-600,14720,-419,126,-70
2512,-716,14756,-452,118,-91
2612,-668,14796,-423,126,-69
2624,-608,14744,-433,126,-66
2692,-636,14832,-426,142,-51
2664,-628,14636,-439,137,-76
2604,-776,14860,-441,119,-75
2652,-728,14736,-429,126,-63
2744,-592,14816,-449,130,-81
2560,-656,14856,-443,143,-48
2648,-676,14832,-422,148,-55
2632,-600,14768,-441,142,-70
2652,-628,14828,-463,157,-74
2636,-672,14800,-423,168,-67
2584,-640,14700,-426,136,-82
2664,-664,14820,-447,131,-76
2676,-632,14932,-433,126,-55
2676,-668,14752,-424,114,-58
2724,-620,14736,-435,113,-71
2636,-612,14612,-435,137,-99
2644,-644,14756,-437,134,-56
2620,-652,14776,-430,153,-65
2672,-564,14724,-443,141,-74
2780,-656,14884,-442,122,-51
2636,-580,14616,-442,120,-66
2644,-656,14772,-434,128,-63
2672,-676,14936,-431,170,-57
2624,-612,14740,-449,126,-92
2592,-604,14808,-417,157,-60
2668,-508,14824,-428,140,-84
2632,-664,14780,-447,167,-62
2668,-680,14780,-423,146,-52
2648,-632,14788,-423,160,-91
2668,-644,14908,-429,135,-63
2620,-628,14868,-430,161,-47
2648,-652,14788,-435,137,-63
2660,-624,14836,-433,134,-88
2636,-612,14724,-437,152,-77
2628,-644,14764,-456,125,-68
2632,-612,14688,-447,154,-64
2632,-656,14968,-441,142,-61
2664,-664,14752,-455,157,-70
2556,-724,14592,-438,132,-72
2724,-600,14836,-454,148,-69
2656,-624,14768,-445,131,-56
2672,-680,14720,-452,127,-68
2668,-584,14860,-423,140,-47
2632,-684,14868,-436,133,-58
2556,-696,14816,-433,146,-69
2708,-592,14920,-420,189,-56
2568,-684,14716,-425,159,-78
2544,-616,14824,-449,149,-42
2720,-604,14872,-444,134,-38
2600,-620,14828,-453,137,-72
2736,-632,14856,-426,145,-45
2632,-636,14872,-425,150,-77
2716,-688,14724,-454,145,-58
2648,-596,14852,-436,144,-66
2636,-672,14808,-425,173,-57
2548,-544,14752,-430,125,-76
2616,-596,14824,-432,127,-62
2632,-636,14728,-423,123,-80
2592,-692,14864,-437,123,-69
2616,-604,14812,-441,141,-61
2660,-584,14788,-424,142,-55
2676,-516,14688,-439,135,-76
2692,-640,14828,-434,139,-59
2684,-732,14772,-441,139,-57
2604,-720,14728,-450,159,-60
2592,-684,14724,-429,171,-68
2684,-664,14636,-449,116,-60
2648,-556,14888,-421,135,-68
2664,-692,14820,-412,139,-60
2628,-644,14788,-431,151,-43
2596,-640,14684,-415,156,-67
2644,-680,14832,-445,153,-75
2696,-704,14764,-440,154,-66
2540,-604,14824,-435,143,-78
2620,-652,14808,-427,152,-63
2572,-512,14792,-441,147,-64
2624,-644,14792,-424,168,-37
2648,-608,14808,-454,116,-72
2576,-628,14764,-440,157,-90
2568,-664,14796,-445,175,-62
2628,-592,14804,-434,147,-78
2596,-688,14788,-437,102,-48
2624,-676,14836,-436,164,-64
2700,-628,14912,-436,121,-83
2740,-580,14744,-448,134,-49
2524,-660,14888,-445,147,-58
2676,-664,14844,-451,151,-49
2612,-648,14916,-432,117,-66
2640,-688,14900,-445,119,-66
2624,-596,14612,-424,140,-66
2708,-596,14784,-441,147,-52
2576,-636,14752,-438,155,-61
2620,-612,14620,-447,150,-60
2632,-592,14864,-449,142,-75
2616,-652,14704,-451,132,-53
2624,-712,14768,-453,142,-68
2660,-640,14792,-444,130,-53
2648,-644,14788,-415,124,-46
2680,-660,14764,-455,123,-62
2716,-612,14792,-443,141,-69
2612,-624,14764,-446,144,-76
2688,-604,14832,-436,151,-72
2736,-668,14860,-437,135,-64
2700,-652,14700,-440,140,-69
2664,-692,14680,-436,165,-78
2708,-532,14844,-444,143,-66
2596,-664,14724,-433,140,-62
2728,-616,14796,-433,145,-47
2712,-644,14860,-434,144,-73
2672,-732,14764,-439,121,-55
2656,-548,14788,-440,114,-69
2616,-696,14788,-433,125,-57
2644,-648,14840,-438,176,-48
2636,-600,14784,-439,133,-61
2756,-668,14844,-439,152,-71
2632,-752,14796,-423,141,-55
2704,-648,14724,-431,128,-65
2704,-640,14900,-438,106,-77
2536,-664,14652,-440,163,-45
2572,-604,14732,-450,158,-41
2656,-600,14816,-450,145,-54
2576,-684,14744,-436,171,-64
2596,-628,14808,-423,163,-59
2740,-644,14796,-430,141,-63
2648,-564,14724,-425,162,-56
2604,-648,14560,-441,145,-70
2680,-696,14728,-435,138,-42
2620,-652,14832,-431,148,-76
2620,-604,14784,-432,123,-61
2628,-648,14820,-460,120,-60
2616,-732,14748,-442,124,-65
2592,-628,14792,-444,133,-59
2680,-560,14676,-431,113,-58
2700,-592,14836,-441,125,-53
2668,-632,14976,-442,120,-55
2792,-608,14824,-446,139,-69
2684,-652,14872,-443,124,-81
2640,-672,14792,-447,163,-73
2612,-620,14712,-436,181,-66
2608,-656,14708,-449,160,-63
2588,-628,14744,-434,158,-61
2676,-644,14692,-433,138,-47
2624,-700,14812,-431,147,-61
2700,-648,14916,-454,130,-70
2668,-604,14904,-444,127,-63
2600,-628,14700,-431,129,-56
2664,-660,14632,-463,144,-77
2528,-632,14808,-439,129,-59
2644,-592,14716,-435,125,-60
2572,-708,14904,-438,157,-77
2580,-696,14664,-437,153,-75
2680,-648,14760,-454,140,-53
2540,-616,14764,-423,142,-52
2532,-684,14844,-439,142,-62
2660,-684,14824,-440,149,-45
2704,-636,14688,-450,130,-73
2592,-600,14828,-443,134,-66
2672,-636,14812,-451,140,-49
2656,-672,14828,-434,123,-63
2656,-648,14736,-457,124,-84
2632,-612,14780,-436,134,-99
2680,-644,14876,-434,147,-73
2552,-708,14760,-442,145,-70
2700,-672,14748,-437,142,-64
2640,-588,14756,-430,169,-60
2600,-636,14788,-437,119,-66
2724,-652,14808,-436,155,-56
2736,-696,14896,-429,144,-42
2592,-688,14828,-432,124,-64
2652,-636,14880,-419,148,-52
2616,-612,14712,-452,126,-62
2604,-640,14740,-445,140,-39
2660,-672,14836,-426,124,-55
2676,-640,14864,-443,153,-51
2596,-668,14816,-434,143,-56
2644,-660,14748,-432,170,-52
2688,-616,14752,-453,140,-52
2492,-644,14884,-429,175,-73
2696,-608,14864,-424,155,-56
2612,-664,14872,-432,155,-79
2640,-644,14808,-443,137,-76
2584,-676,14688,-433,141,-59
2692,-608,14716,-428,137,-55
2716,-660,14740,-445,149,-39
2692,-664,14796,-429,142,-54
2612,-644,14732,-449,135,-57
2532,-716,14816,-427,146,-88
2668,-612,14744,-445,151,-65
2660,-688,14856,-428,146,-73
2668,-688,14744,-412,143,-68
2520,-672,14900,-443,131,-81
2600,-608,14712,-445,150,-72
2652,-656,14752,-434,145,-58
2552,-612,14908,-408,144,-58
2640,-572,14756,-433,152,-46
2688,-568,14896,-453,155,-72
2784,-608,14728,-437,153,-73
2584,-560,14808,-410,138,-50
2684,-596,14800,-433,154,-83
2768,-608,14756,-427,140,-59
2636,-648,14780,-455,134,-63
2580,-592,14732,-434,153,-63
2692,-672,14756,-441,147,-68
2652,-544,14752,-438,145,-79
2652,-672,14896,-420,175,-83
2624,-568,14808,-437,142,-63
2740,-660,14884,-440,148,-60
2748,-664,14752,-442,151,-50
2680,-648,14728,-440,120,-49
2580,-664,14932,-442,153,-64
2644,-660,14732,-436,147,-60
2640,-688,14844,-437,135,-68
2560,-636,14916,-430,121,-61
2556,-572,14744,-427,113,-46
2656,-724,14840,-449,138,-53
2560,-568,14760,-435,146,-53
2600,-720,15012,-448,151,-42
2724,-640,14780,-423,158,-101
2616,-576,14912,-438,132,-78
2656,-580,14876,-426,135,-74
2708,-612,14676,-453,145,-65
2692,-668,14768,-443,134,-73
2636,-592,14708,-447,129,-56
2660,-692,14776,-445,148,-63
2576,-716,14732,-438,148,-72
2544,-664,14856,-451,167,-64
2636,-588,14812,-431,150,-45
2544,-684,14872,-422,160,-93
2600,-560,14792,-430,139,-48
2716,-656,14788,-442,154,-60
2596,-660,14872,-443,135,-56
2596,-644,14828,-440,135,-73
2676,-624,14752,-446,141,-68
2632,-668,14668,-450,149,-70
2620,-620,14808,-444,139,-60
2636,-684,14760,-449,123,-59
2632,-604,14948,-448,163,-64
2648,-684,14800,-449,145,-62
2692,-628,14868,-428,140,-50
2624,-612,14724,-436,146,-64
2600,-688,14816,-440,158,-95
2696,-580,14712,-442,134,-52
2668,-712,14760,-417,145,-80
2676,-740,14772,-441,129,-63
2648,-676,14756,-430,139,-68
2624,-704,14692,-448,141,-62
2664,-696,14708,-429,149,-76
2584,-632,14832,-454,112,-60
2656,-588,14628,-451,134,-56
2540,-628,14820,-429,126,-44
2604,-668,14772,-436,133,-66
2624,-672,14880,-429,161,-62
2640,-700,14792,-435,147,-55
2624,-612,14748,-438,159,-95
2608,-652,14868,-433,135,-81
2700,-676,14856,-442,152,-68
2644,-716,14860,-429,146,-59
2624,-692,14752,-425,128,-75
2572,-712,14852,-437,165,-59
2732,-648,14836,-440,135,-45
2640,-664,14876,-436,134,-55
2632,-708,14916,-461,159,-55
2648,-660,14752,-421,160,-74
2544,-712,14904,-453,122,-57
2636,-652,14828,-437,135,-74
2668,-596,14860,-441,142,-53
2660,-620,14828,-426,138,-75
2568,-676,14884,-450,150,-60
2596,-620,14764,-454,149,-73
2696,-608,14768,-439,132,-75
2636,-660,14764,-445,139,-57
2560,-604,14920,-414,163,-63
2720,-680,14828,-430,135,-73
2612,-600,14724,-452,171,-41
2592,-684,14812,-444,143,-75
2728,-628,14840,-447,123,-65
2664,-664,14784,-448,140,-60
2672,-600,14860,-441,118,-74
2724,-616,14776,-425,143,-60
2768,-692,14772,-446,140,-64
2696,-576,14748,-424,144,-91
2720,-652,14904,-449,129,-64
2644,-568,14776,-437,154,-93
2632,-620,14752,-445,166,-71
2500,-652,14760,-445,148,-67
2628,-716,14772,-441,143,-64
2636,-616,14696,-448,141,-47
2684,-632,14824,-445,141,-56
2660,-644,14792,-444,152,-64
2576,-640,14836,-444,137,-56
2652,-660,14732,-434,159,-48
2652,-732,14928,-426,125,-69
2596,-584,14892,-442,144,-45
2636,-656,14888,-431,160,-79
2636,-672,14876,-445,125,-56
2620,-680,14816,-442,139,-85
2632,-728,14876,-461,132,-80
2768,-712,14712,-447,119,-55
2652,-688,14732,-430,135,-73
2604,-748,14816,-434,151,-73
2612,-632,14792,-456,153,-70
2712,-656,14892,-435,145,-60
2644,-720,14760,-446,151,-59
2752,-632,14836,-418,129,-78
2624,-680,14720,-442,149,-74
2648,-696,14752,-462,135,-56
2700,-656,14780,-435,140,-83
2704,-640,14652,-444,144,-59
2616,-608,14784,-449,162,-67
2636,-640,14748,-436,126,-64
2636,-648,14816,-448,135,-64
2596,-592,14816,-440,142,-59
2620,-588,14820,-423,126,-51
2696,-628,14684,-438,148,-75
2560,-596,14820,-446,133,-29
2556,-532,14744,-434,164,-72
2676,-620,14776,-428,128,-79
2700,-744,14696,-445,146,-65
2584,-708,14716,-427,147,-72
2692,-624,14780,-422,125,-63
2564,-636,14896,-430,162,-72
2740,-672,14776,-442,125,-44
2664,-644,14720,-414,147,-61
2592,-676,14736,-448,152,-56
2596,-620,14748,-438,156,-59
2584,-680,14708,-446,141,-65
2616,-668,14760,-417,148,-60
2716,-664,14744,-445,142,-50
2568,-676,14860,-456,148,-73
2512,-732,14796,-441,108,-84
2468,-712,14848,-439,157,-66
2604,-656,14852,-453,141,-64
2648,-688,14716,-442,123,-46
2700,-668,14752,-432,132,-72
2636,-640,15012,-435,150,-60
2568,-624,14912,-437,136,-53
2556,-608,14892,-441,120,-63
2736,-624,14860,-437,159,-76
2684,-640,14812,-440,172,-98
2640,-656,14716,-437,122,-65
2684,-636,14776,-442,130,-63
2680,-612,14772,-448,136,-58
2724,-636,14856,-448,112,-72
2604,-592,14756,-434,167,-60
2680,-676,14744,-423,138,-63
2644,-608,14752,-446,122,-61
2696,-604,14836,-434,147,-80
2576,-652,14788,-443,154,-74
2588,-616,14784,-426,160,-43
2620,-760,14748,-439,128,-76
2640,-624,14752,-440,148,-83
2700,-680,14848,-444,151,-62
2688,-680,14780,-440,132,-70
2688,-636,14856,-429,136,-76
2632,-780,14768,-441,124,-68
2728,-672,14796,-442,126,-81
2588,-664,14832,-441,155,-62
2680,-676,14756,-442,160,-32
2684,-680,14764,-432,123,-65
2744,-660,14744,-440,127,-75
2660,-636,14844,-427,147,-87
2664,-696,14812,-441,145,-57
2652,-620,14860,-440,161,-62
2600,-568,14776,-438,160,-81
2572,-684,14784,-449,161,-77
2608,-616,14700,-441,149,-50
2640,-712,14744,-434,128,-90
2668,-568,14948,-435,164,-85
2572,-660,14696,-438,142,-82
2700,-660,14788,-424,135,-66
2620,-696,14844,-449,141,-96
2656,-588,14820,-434,143,-60
2572,-640,14724,-425,137,-72
2640,-720,14636,-436,124,-66
2628,-688,14844,-442,171,-54
2636,-696,14824,-438,157,-66
2676,-668,14692,-443,128,-56
2692,-672,14648,-430,128,-74
2608,-648,14772,-441,137,-66
2596,-588,14852,-439,143,-68
2728,-640,14868,-429,155,-57
2696,-680,14780,-430,143,-54
2716,-600,14808,-440,128,-57
2568,-636,14744,-426,129,-89
2648,-624,14744,-437,117,-50
2628,-684,14700,-435,144,-66
2700,-556,14796,-448,148,-74
2644,-612,14716,-423,149,-96
2712,-672,14872,-430,149,-72
2640,-548,14748,-432,126,-77
2532,-600,14688,-420,166,-79
2540,-632,14788,-437,163,-34
2616,-680,14860,-422,121,-66
2612,-632,14736,-433,101,-75
2664,-652,14740,-423,145,-58
2688,-636,14824,-454,151,-45
2692,-612,14752,-455,137,-79
2700,-632,14844,-456,132,-72
2728,-676,14788,-448,133,-70
2572,-616,14752,-427,149,-73
2776,-684,14860,-452,161,-68
2512,-636,14780,-455,147,-55
2604,-584,14848,-445,143,-67
2640,-568,14932,-439,127,-84
2612,-632,14808,-443,145,-59
2616,-620,14836,-435,118,-54
2636,-668,14808,-425,144,-72
2700,-696,14628,-440,160,-76
2780,-664,14680,-432,124,-79
2692,-704,14712,-428,135,-53
2752,-684,14872,-443,154,-66
2664,-636,14832,-438,149,-60
2680,-672,14696,-448,132,-73
2664,-664,14784,-442,146,-73
2636,-648,14688,-443,141,-76
2628,-628,14740,-439,116,-48
2644,-716,14776,-439,124,-65
2712,-664,14848,-434,167,-41
2700,-648,14804,-452,132,-48
2660,-648,14772,-432,145,-75
2716,-664,14796,-436,119,-77
2740,-624,14716,-451,137,-60
2656,-568,14748,-449,151,-61
2572,-628,14692,-437,173,-73
2636,-680,14876,-445,146,-76
2716,-620,14916,-439,160,-70
2680,-668,14880,-442,133,-50
2736,-692,14788,-450,144,-47
2628,-648,14848,-429,151,-64
2696,-624,14724,-439,143,-75
2632,-536,14784,-418,155,-67
2624,-612,14900,-428,137,-47
2672,-724,14800,-443,141,-62
2668,-588,14852,-433,136,-56
2636,-716,14800,-422,157,-52
2712,-676,14832,-437,144,-64
2516,-612,14880,-436,157,-44
2500,-612,14844,-456,146,-66
2732,-564,14816,-447,157,-76
2600,-672,14716,-433,145,-77
2716,-604,14972,-444,147,-58
2748,-596,14792,-442,159,-55
2736,-656,14832,-424,149,-69
2644,-672,14856,-438,190,-75
2604,-576,14820,-449,163,-43
2636,-676,14816,-433,138,-62
2728,-648,14748,-443,130,-65
2776,-676,14628,-445,151,-60
2548,-616,14848,-442,125,-53
2592,-580,14968,-435,127,-73
2600,-612,14892,-447,154,-62
2568,-668,14772,-423,144,-50
2736,-580,14800,-452,148,-56
2712,-688,14704,-445,151,-63
2604,-652,14876,-422,140,-68
2680,-652,14864,-447,118,-84
2660,-588,14832,-442,158,-66
2640,-556,14696,-442,140,-65
2612,-508,14856,-459,141,-50
2644,-684,14796,-440,123,-76
2672,-652,14852,-435,144,-52
2736,-620,14940,-441,151,-58
2568,-624,14616,-446,176,-68
2604,-608,14872,-439,128,-66
2624,-636,14796,-437,141,-80
2660,-700,14940,-457,165,-47
2756,-584,14768,-424,150,-67
2612,-656,14780,-445,143,-73
2588,-672,14912,-438,148,-61
2676,-668,14840,-427,151,-82
2740,-740,14692,-437,168,-69
2688,-620,14932,-438,134,-93
2748,-732,14872,-447,141,-49
2604,-636,14720,-437,155,-73
2644,-664,14664,-432,163,-56
2656,-652,14668,-459,170,-71
2596,-604,14772,-449,137,-51
2660,-692,14648,-436,130,-66
2712,-648,14616,-453,175,-74
2752,-592,14856,-437,120,-67
2608,-628,14744,-440,166,-62
2680,-656,14912,-425,172,-59
2624,-656,14644,-433,160,-55
2592,-676,14788,-426,171,-66
2680,-628,14864,-431,159,-53
2668,-608,14688,-433,194,-79
2724,-748,14768,-440,128,-56
2640,-664,14744,-435,127,-65
2604,-628,14900,-440,152,-93
2644,-656,14752,-431,138,-80
2708,-692,14884,-419,167,-70
2744,-616,14684,-433,129,-74
2628,-548,14956,-447,137,-83
2576,-640,14848,-411,120,-56
2704,-592,14756,-452,162,-61
2636,-636,14680,-435,153,-73
2640,-688,14832,-459,138,-52
2704,-756,14672,-416,128,-77
2696,-648,14708,-446,150,-68
2616,-708,14708,-452,160,-57
2572,-720,14768,-463,153,-60
2688,-664,14668,-450,134,-70
2624,-636,14632,-431,139,-88
2604,-648,14760,-451,102,-75
2680,-564,14700,-438,124,-77
2644,-568,14792,-439,118,-57
2768,-676,14784,-439,179,-70
2656,-568,14808,-405,150,-54
2668,-600,14780,-442,160,-74
2660,-612,14796,-432,161,-59
2768,-640,14884,-438,148,-57
2612,-588,14776,-447,154,-79
2628,-604,14824,-431,157,-68
2536,-676,14880,-448,113,-56
2648,-636,14736,-441,135,-55
2692,-600,14848,-446,121,-61
2644,-704,14860,-456,161,-70
2724,-648,14872,-443,130,-56
2676,-612,14776,-443,131,-58
2620,-688,14812,-433,164,-70
2696,-672,14848,-441,150,-67
2680,-600,14796,-422,150,-62
2732,-648,14800,-446,122,-46
2724,-652,14940,-449,163,-82
2680,-572,14716,-439,145,-67
2544,-624,14756,-443,145,-66
2652,-696,14808,-428,134,-35
2616,-528,14916,-440,139,-68
2624,-512,14872,-429,146,-61
2604,-700,14736,-443,134,-58
2684,-624,14628,-444,152,-66
2636,-596,14824,-444,139,-89
2604,-648,14724,-458,140,-47
2624,-656,14872,-446,156,-78
2596,-624,14896,-449,120,-71
2664,-584,14736,-442,144,-60
2568,-624,14676,-430,150,-58
2624,-692,14720,-426,139,-58
2608,-656,14772,-442,147,-58
2648,-684,14656,-417,146,-79
2548,-616,14616,-435,149,-60
2712,-544,14872,-433,163,-89
2564,-644,14840,-437,175,-76
2772,-652,14780,-442,125,-69
2640,-756,14888,-423,143,-71
2720,-548,14692,-439,140,-67
2648,-588,14768,-437,134,-70
2600,-684,14704,-451,122,-71
2672,-644,14872,-431,156,-76
2616,-656,14880,-444,167,-36
2728,-664,14976,-451,141,-61
2640,-656,14732,-450,146,-95
2656,-636,14796,-451,126,-75
2604,-640,14776,-445,150,-58
2636,-600,14716,-451,156,-64
2584,-604,14884,-448,136,-84
2692,-700,14744,-434,140,-62
2668,-632,14780,-443,167,-89
2688,-672,14740,-438,128,-55
2704,-596,14824,-448,147,-83
2604,-648,14824,-445,158,-82
2736,-684,14764,-439,134,-81
2616,-672,14824,-439,153,-50
2652,-660,14804,-425,135,-73
2652,-660,14748,-431,115,-60
2656,-584,14828,-440,126,-72
2620,-636,14716,-454,149,-64
2604,-504,14684,-427,150,-30
2684,-628,14800,-430,144,-60
2564,-640,14804,-429,146,-85
2620,-648,14864,-432,159,-47
2572,-592,14600,-436,139,-64
2628,-536,14752,-431,147,-71
2668,-636,14752,-426,135,-66
2620,-648,14760,-430,143,-53
2612,-564,14784,-439,146,-80
2616,-604,14856,-445,176,-68
2648,-640,14928,-428,144,-71
2600,-640,14832,-435,162,-52
2756,-664,14840,-436,134,-57
2584,-600,14812,-435,165,-57
2636,-580,14736,-437,106,-52
2636,-660,14792,-440,150,-81
2640,-688,14868,-448,152,-89
2572,-496,14820,-434,128,-60
2524,-572,14672,-436,140,-65
2592,-684,14808,-450,123,-56
2680,-604,14760,-446,165,-60
2636,-648,14728,-435,131,-82
2652,-644,14792,-416,154,-87
2648,-652,14820,-437,146,-58
2684,-728,14808,-449,132,-52
2636,-552,14812,-421,119,-47
2628,-720,14624,-438,132,-72
2592,-684,14696,-444,143,-57
2576,-692,14872,-428,140,-43
2568,-676,14796,-434,131,-54
2616,-596,14816,-435,136,-88
2572,-644,14844,-434,129,-45
2672,-708,14728,-435,143,-48
2568,-664,14768,-443,128,-71
2624,-696,14656,-438,150,-51
2652,-604,14788,-439,160,-40
2616,-600,14744,-451,160,-62
2684,-648,14828,-446,139,-64
2680,-652,14856,-422,160,-52
2760,-588,14816,-433,164,-78
2580,-728,14728,-459,154,-51
2736,-624,14800,-439,127,-63
2620,-756,14672,-440,134,-29
2656,-556,14744,-441,156,-73
2696,-696,14864,-433,144,-60
2636,-644,14800,-457,144,-68
2744,-620,14744,-435,184,-54
2680,-604,14812,-427,133,-78
2624,-608,14872,-452,131,-70
2620,-628,14728,-450,143,-48
2640,-556,14804,-450,145,-68
2624,-600,14908,-436,116,-51
2728,-616,14796,-440,134,-65
2668,-652,14792,-436,171,-85
2676,-664,14764,-427,143,-60
2584,-628,14756,-422,143,-61
2600,-636,14816,-438,131,-69
2604,-704,14744,-416,120,-44
2604,-580,14800,-449,147,-68
2600,-656,14812,-440,158,-58
2664,-732,14864,-430,127,-76
2544,-636,14512,-432,147,-72
2612,-668,14692,-444,149,-49
2648,-604,14824,-439,156,-61
2664,-652,14772,-436,140,-86
2616,-548,14664,-440,142,-60
2740,-600,14820,-450,161,-69
2676,-624,14772,-449,143,-66
2600,-636,14904,-440,130,-57
2612,-676,14948,-446,174,-63
2648,-580,14804,-450,137,-80
2668,-632,14688,-441,136,-34
2644,-648,14768,-436,151,-74
2644,-568,14836,-420,173,-44
2648,-676,14896,-443,148,-42
2600,-752,14764,-426,156,-69
2652,-704,14724,-436,154,-56
2560,-636,14904,-454,158,-49
2612,-624,14732,-448,151,-71
2668,-624,14700,-441,157,-62
2640,-724,14824,-450,164,-57
2640,-640,14796,-454,165,-55
2628,-580,14868,-437,122,-82
2532,-584,14752,-429,146,-59
2716,-592,14768,-425,148,-69
2600,-692,14908,-442,153,-74
2600,-604,14724,-445,131,-76
2576,-688,14732,-435,144,-58
2620,-576,14872,-450,160,-61
2604,-756,14800,-423,169,-63
2680,-596,14752,-431,126,-63
2560,-624,14872,-424,135,-65
2696,-732,14856,-433,157,-66
2548,-608,14648,-449,149,-37
2568,-700,14712,-456,159,-55
2576,-636,14764,-469,140,-76
2704,-520,14812,-431,147,-58
2620,-680,14824,-417,125,-81
2684,-668,14716,-455,144,-67
2600,-640,14664,-435,138,-60
2728,-560,14724,-449,155,-85
2596,-604,14852,-437,136,-62
2648,-720,14680,-439,121,-65
2756,-544,14836,-427,135,-83
2676,-596,14796,-439,136,-77
2656,-688,14844,-443,155,-63
2576,-564,14748,-430,119,-80
2604,-596,14836,-438,153,-84
2624,-644,14840,-435,152,-65
2572,-580,14916,-430,150,-63
2684,-708,14772,-440,145,-67
2652,-648,14800,-441,147,-60
2640,-632,14744,-428,135,-58
2600,-600,14828,-430,137,-57
2676,-640,14772,-428,138,-83
2588,-628,14828,-442,133,-88
2656,-560,14796,-433,144,-45
2712,-668,14796,-442,121,-67
2752,-584,14688,-432,156,-62
2552,-528,14672,-438,148,-76
2688,-680,14788,-440,135,-65
2572,-600,14872,-425,131,-73
2756,-604,14744,-430,138,-51
2668,-652,14700,-451,164,-83
2676,-684,14864,-439,135,-54
2508,-660,14788,-436,130,-53
2696,-592,14724,-435,141,-63
2664,-656,14852,-429,150,-92
2580,-704,14800,-424,153,-64
2712,-616,14816,-464,165,-59
2620,-592,14768,-424,135,-65
2692,-684,14708,-454,139,-64
2632,-676,14860,-436,156,-49
2624,-676,14848,-431,139,-58
2644,-680,14764,-422,147,-78
2648,-644,14800,-418,123,-73
2596,-712,14728,-458,152,-69
2756,-664,14688,-428,114,-62
2624,-680,14884,-452,140,-58
2636,-668,14692,-428,160,-52
2616,-612,14808,-447,136,-76
2656,-524,14872,-448,153,-87
2624,-624,14772,-423,126,-74
2644,-720,14856,-432,155,-82
2692,-640,14720,-431,159,-62
2592,-632,14880,-455,138,-71
2700,-612,14688,-433,135,-53
2604,-568,14852,-430,141,-71
2604,-612,14812,-426,143,-74
2584,-640,14752,-453,144,-59
2644,-568,14672,-446,161,-52
2548,-756,14828,-443,136,-67
2688,-640,14720,-441,149,-58
2584,-612,14736,-434,122,-65
2580,-624,14820,-440,141,-67
2668,-612,14676,-418,153,-68
2744,-676,14888,-444,161,-64
2672,-600,14860,-444,126,-59
2620,-584,14748,-435,146,-55
2616,-768,14596,-437,157,-44
2628,-604,14680,-424,145,-76
2576,-620,14660,-431,182,-70
2632,-668,14708,-434,117,-55
2604,-616,14748,-436,113,-62
2564,-548,14760,-433,142,-82
2680,-660,14672,-430,169,-59
2620,-640,14756,-438,126,-56
2664,-636,14732,-435,155,-41
2704,-628,14644,-432,156,-64
2664,-668,14812,-426,136,-76
2668,-600,14584,-432,139,-76
2560,-640,14824,-434,142,-57
2580,-692,14692,-437,141,-70
2628,-700,14812,-446,138,-79
2696,-680,14800,-435,147,-80
2692,-636,14836,-445,147,-40
2588,-628,14784,-449,157,-73
2624,-644,14856,-439,128,-48
2648,-700,14680,-422,151,-77
2528,-684,14724,-449,148,-83
2532,-668,14712,-444,150,-65
2652,-608,14788,-444,107,-70
2624,-604,14748,-445,122,-66
2536,-592,14844,-427,139,-57
2704,-656,14760,-442,156,-58
2604,-636,14848,-437,135,-57
2616,-676,14724,-430,143,-72
2648,-660,14824,-424,125,-57
2704,-664,14728,-426,122,-34
2640,-624,14692,-437,146,-83
2552,-672,14720,-426,125,-50
2612,-676,14700,-448,121,-68
2624,-568,14744,-425,159,-64
2688,-660,14768,-425,137,-33
2636,-628,14760,-438,143,-78
2688,-696,14648,-440,135,-54
2688,-684,14688,-449,126,-74
2532,-684,14904,-434,137,-52
2664,-592,14732,-445,158,-72
2724,-708,14832,-427,157,-77
2640,-676,14884,-437,164,-33
2644,-700,14836,-435,142,-60
2692,-660,14636,-409,166,-52
2608,-520,14784,-450,125,-65
2620,-644,14736,-448,155,-64
2604,-732,14688,-427,165,-58
2692,-712,14812,-432,150,-62
2644,-592,14792,-450,154,-67
2644,-624,14732,-426,185,-67
2592,-680,14824,-439,164,-84
2640,-716,14788,-445,166,-80
2632,-668,14764,-424,141,-61
2688,-676,14668,-432,154,-71
2560,-676,14752,-453,189,-54
2616,-600,14708,-439,169,-58
2704,-680,14808,-427,156,-69
2664,-608,14892,-436,147,-57
2616,-616,14748,-439,154,-59
2644,-656,14804,-444,148,-67
2676,-652,14860,-430,122,-60
2564,-620,14848,-434,138,-62
2700,-648,14796,-437,145,-77
2668,-612,14664,-441,131,-70
2664,-624,14724,-449,133,-67
2524,-640,14724,-444,154,-66
2640,-628,14816,-444,168,-66
2732,-620,14836,-439,122,-46
2640,-728,14884,-444,143,-66
2600,-704,14872,-435,156,-68
2624,-608,14772,-447,144,-61
2664,-552,14760,-439,145,-56
2600,-672,14828,-428,155,-61
2668,-688,14772,-440,160,-70
2660,-712,14752,-444,130,-47
2588,-604,14752,-436,128,-44
2684,-584,14700,-448,121,-65
2676,-600,14828,-433,162,-58
2664,-504,14932,-437,153,-57
2648,-672,14728,-436,139,-56
2624,-564,14784,-432,144,-74
2636,-648,14868,-451,156,-59
2696,-684,14756,-417,145,-60
2668,-724,14836,-424,153,-64
2728,-492,14740,-446,147,-78
2652,-692,14848,-447,110,-24
2660,-612,14792,-423,133,-52
2604,-636,14676,-440,162,-68
2560,-544,14776,-439,134,-59
2560,-692,14764,-433,147,-64
2616,-644,14760,-448,155,-74
2584,-656,14780,-432,137,-73
2624,-724,14748,-432,165,-68
2708,-640,14800,-443,105,-55
2608,-624,14720,-436,118,-50
2568,-684,14844,-445,148,-80
2644,-624,14736,-433,146,-58
2668,-604,14752,-442,141,-79
2616,-640,14792,-449,157,-56
2596,-636,14764,-433,146,-75
2544,-572,14788,-428,151,-62
2644,-628,14736,-462,161,-72
2628,-664,14740,-442,141,-76
2680,-624,14792,-443,144,-90
2544,-652,14732,-432,132,-74
2700,-624,14808,-441,152,-67
2672,-672,14676,-426,133,-63
2612,-608,14808,-435,155,-63
2624,-604,14704,-438,122,-57
2660,-688,14788,-431,157,-54
2648,-676,14788,-446,132,-56
2560,-696,14844,-444,154,-71
2668,-696,14816,-446,137,-41
2588,-724,14796,-429,162,-61
2696,-596,14920,-463,153,-64
2580,-700,14940,-451,132,-57
2676,-668,14632,-422,155,-38
2708,-580,14780,-424,156,-74
2652,-580,14968,-442,166,-62
2636,-720,14832,-432,164,-63
2588,-652,14784,-441,127,-65
2784,-568,14736,-455,146,-61
2656,-572,14636,-432,149,-74
2728,-652,14672,-449,134,-87
2664,-684,14744,-432,132,-68
2616,-628,14816,-420,140,-87
2720,-560,14696,-433,152,-81
2628,-676,14716,-435,123,-62
2616,-620,14764,-432,127,-69
2644,-620,14788,-427,168,-52
2652,-624,14832,-449,141,-57
2720,-628,14736,-437,148,-65
2748,-672,14760,-448,156,-83
2628,-668,14744,-432,158,-49
2712,-604,14704,-438,135,-64
2568,-660,14860,-433,149,-68
2664,-752,14764,-444,113,-62
2716,-684,14724,-443,140,-68
2612,-612,14800,-434,179,-59
2640,-672,14768,-445,151,-57
2768,-692,14616,-427,150,-79
2612,-612,14760,-449,154,-41
2672,-680,14952,-426,148,-76
2628,-636,14812,-416,141,-74
2660,-584,14704,-438,135,-62
2588,-536,14952,-456,161,-54
2680,-668,14752,-422,120,-72
2676,-672,14800,-440,153,-53
2600,-648,14684,-463,139,-60
2616,-660,14816,-423,143,-64
2664,-624,14960,-453,165,-75
2664,-604,14760,-450,144,-69
2620,-680,14652,-442,153,-42
2708,-668,14820,-442,147,-77
2640,-660,14876,-440,125,-78
2564,-612,14760,-432,143,-64
2592,-616,14744,-453,160,-63
2684,-660,14844,-438,123,-57
2724,-648,14748,-437,152,-64
2640,-632,14932,-430,157,-67
2660,-568,14832,-425,112,-86
2800,-608,14700,-446,129,-70
2696,-752,14808,-443,149,-66
2568,-624,14716,-444,167,-55
2572,-680,14880,-470,147,-88
2680,-632,14932,-438,145,-62
2644,-664,14704,-431,158,-72
2652,-636,14920,-441,144,-65
2608,-608,14896,-462,131,-64
2704,-664,14732,-441,107,-66
2636,-684,14848,-440,144,-63
2612,-744,14728,-438,148,-50
2604,-656,14848,-439,136,-62
2648,-640,14876,-442,143,-58
2676,-664,14664,-438,159,-45
2672,-624,14684,-461,138,-60
2612,-616,14716,-448,155,-63
2684,-664,14868,-445,140,-61
2704,-616,14760,-437,134,-80
2640,-624,14776,-431,136,-58
2656,-588,14812,-452,148,-69
2688,-636,14644,-443,137,-55
2648,-648,14752,-431,154,-59
2656,-624,14704,-446,150,-76
2608,-676,14836,-448,144,-56
2596,-604,14916,-450,147,-73
2744,-664,14660,-429,142,-62
2656,-676,14796,-437,143,-62
2540,-560,14752,-442,174,-63
2592,-668,14760,-448,160,-74
2684,-588,14688,-434,152,-57
2652,-604,14820,-448,149,-70
2656,-588,14736,-448,146,-66
2668,-632,14748,-444,142,-85
2580,-576,14904,-441,122,-52
2724,-488,14672,-439,134,-50
2728,-560,14876,-459,174,-37
2612,-632,14772,-435,145,-65
2640,-664,14856,-438,165,-74
2624,-624,14924,-422,150,-72
2644,-640,14852,-423,138,-64
2532,-640,14724,-442,177,-73
2608,-640,14708,-452,154,-64
2620,-620,14800,-427,139,-88
2764,-540,14760,-445,113,-70
2636,-644,14724,-452,118,-87
2684,-572,14772,-435,150,-57
2612,-592,14824,-456,157,-65
2620,-616,14812,-437,139,-82
2656,-656,14620,-432,174,-58
2756,-676,14752,-444,156,-65
2648,-636,14760,-438,175,-43
2652,-640,14704,-437,147,-78
2724,-612,14744,-431,125,-75
2628,-640,14896,-423,147,-83
2712,-648,14832,-429,133,-68
2548,-704,14776,-435,133,-62
2572,-576,14748,-426,157,-51
2640,-604,14732,-447,142,-49
2684,-632,14912,-448,132,-63
2664,-680,14792,-430,128,-77
2720,-664,14924,-436,131,-60
2540,-636,14880,-426,172,-29
2632,-604,14684,-443,131,-61
2620,-596,14592,-416,123,-88
2652,-652,14848,-443,141,-72
2568,-684,14884,-449,157,-52
2580,-548,14848,-434,137,-61
2760,-640,14804,-428,149,-74
2644,-624,14860,-425,137,-47
2744,-664,14828,-456,154,-68
2656,-604,14820,-430,144,-51
2680,-636,14912,-448,149,-67
2524,-696,14860,-420,148,-63
2688,-640,14888,-429,154,-59
2628,-688,14692,-435,143,-87
2636,-636,14888,-448,157,-64
2608,-592,14724,-431,136,-79
2640,-652,14844,-440,122,-78
2700,-632,14740,-438,119,-74
2700,-640,14696,-440,145,-55
2656,-668,14856,-441,145,-65
2536,-584,14860,-453,141,-61
2696,-600,14676,-451,141,-84
2628,-680,14944,-441,126,-47
2688,-600,14896,-425,150,-62
2700,-560,14720,-425,160,-44
2568,-644,14704,-447,145,-55
2576,-676,14684,-447,151,-42
2632,-636,14676,-459,148,-66
2764,-616,14800,-443,128,-71
2648,-736,14556,-451,149,-44
2656,-652,14768,-443,122,-69
2640,-584,14784,-440,148,-63
2636,-604,14852,-428,151,-50
2756,-688,14696,-439,168,-72
2688,-584,14836,-442,144,-57
2704,-556,14752,-449,114,-50
2640,-648,14832,-427,109,-72
2608,-628,14872,-430,165,-57
2692,-640,14800,-439,171,-58
2620,-620,14692,-423,156,-61
2604,-632,14856,-423,148,-53
2592,-768,14704,-431,114,-83
2724,-688,14900,-434,157,-79
2592,-596,14788,-436,125,-57
2680,-628,14744,-433,146,-64
2640,-652,14796,-434,156,-69
2560,-656,14888,-448,137,-46
2644,-660,14784,-457,147,-72
2660,-652,14756,-447,132,-60
2736,-604,14704,-455,147,-79
2660,-592,14696,-436,165,-55
2636,-668,14708,-434,177,-68
2668,-640,14808,-427,124,-71
2632,-656,14900,-438,164,-75
2628,-680,14796,-441,150,-56
2660,-600,14860,-446,134,-70
2732,-560,14716,-411,139,-53
2720,-624,14772,-434,171,-72
2636,-596,14828,-454,156,-74
2636,-728,14764,-454,135,-93
2624,-684,14744,-446,142,-46
2680,-684,14896,-435,129,-35
2672,-700,14760,-441,138,-58
2620,-696,14740,-458,143,-60
2636,-596,14816,-455,114,-62
2592,-676,14688,-438,152,-75
2672,-672,14760,-450,145,-52
2768,-572,14824,-415,162,-47
2668,-668,14836,-452,138,-69
2644,-644,14812,-436,166,-80
2592,-664,14824,-429,137,-55
2704,-588,14768,-442,151,-69
2700,-676,14752,-446,155,-54
2696,-604,14860,-430,144,-65
2644,-668,14692,-431,182,-74
2592,-700,14812,-441,138,-66
2572,-640,14804,-432,151,-68
2616,-648,14824,-434,150,-56
2656,-592,14640,-436,152,-37
2692,-552,14724,-437,142,-62
2652,-688,14636,-430,140,-65
2640,-712,14816,-436,166,-88
2700,-672,14840,-429,133,-72
2596,-652,14876,-458,140,-57
2692,-588,14760,-441,155,-68
2612,-648,14904,-445,124,-61
2572,-592,14728,-440,157,-60
2564,-636,14772,-433,158,-48
2652,-604,14768,-441,172,-73
2652,-712,14864,-430,137,-56
2636,-620,14712,-439,136,-40
2672,-660,14792,-472,119,-46
2632,-644,14832,-425,133,-53
2608,-676,14688,-434,140,-57
2620,-600,14812,-453,126,-65
2712,-632,14844,-445,160,-56
2664,-612,14668,-435,149,-43
2668,-676,14700,-445,133,-74
2668,-532,14784,-443,135,-72
2620,-644,14740,-433,124,-73
2716,-616,14852,-443,148,-43
2604,-636,14796,-427,152,-72
2768,-704,14720,-425,108,-37
2660,-652,14908,-442,146,-77
2740,-680,14748,-439,132,-60
2668,-636,14816,-437,127,-83
2696,-572,14764,-435,155,-69
2820,-616,14764,-446,140,-73
2716,-640,14704,-449,136,-73
2676,-660,14832,-456,118,-51
2596,-636,14888,-422,146,-52
2660,-600,14636,-444,123,-46
2640,-716,14864,-442,135,-87
2652,-604,14776,-435,154,-74
2616,-660,14708,-432,155,-57
2636,-612,14772,-453,133,-63
2700,-756,14780,-459,146,-77
2648,-728,14620,-430,152,-70
2696,-736,14708,-449,143,-57
2668,-648,14664,-433,155,-87
2584,-684,14752,-441,126,-39
2580,-664,14888,-440,150,-52
2792,-636,14856,-426,145,-73
2668,-592,14776,-447,151,-59
2772,-596,14848,-429,132,-59
2616,-604,14860,-446,134,-33
2612,-660,14768,-428,121,-55
2644,-716,14764,-427,135,-52
2612,-728,14872,-440,109,-83
2680,-600,14656,-452,136,-50
2608,-664,14656,-428,141,-33
2608,-644,14868,-435,142,-45
2668,-664,14864,-446,137,-72
2556,-644,14680,-440,134,-78
2648,-644,14532,-446,122,-82
2772,-648,14708,-426,153,-84
2568,-636,14760,-443,132,-61
2736,-636,14824,-438,136,-52
2612,-684,14872,-429,146,-60
2608,-596,14872,-457,149,-68
2572,-656,14728,-441,138,-79
2608,-556,14932,-452,139,-62
2656,-688,14892,-448,182,-60
2688,-644,14796,-433,130,-26
2668,-696,14776,-455,149,-64
2544,-564,14764,-440,139,-62
2740,-672,14644,-436,138,-72
2640,-672,14760,-447,165,-43
2604,-644,14808,-437,144,-64
2800,-612,14868,-428,150,-49
2668,-592,14688,-441,145,-52
2640,-720,14808,-436,154,-79
2680,-628,14736,-425,126,-65
2668,-612,14708,-436,150,-84
2520,-604,14860,-456,162,-74
2612,-604,14836,-436,139,-59
2676,-748,14832,-436,137,-67
2568,-668,14808,-430,139,-75
2604,-552,14820,-435,147,-61
2616,-636,14776,-434,140,-51
2700,-644,14696,-436,157,-66
2692,-640,14660,-426,134,-47
2640,-664,14692,-446,157,-54
2672,-672,14780,-429,134,-79
2756,-704,14720,-433,147,-47
2652,-596,14752,-446,131,-59
2604,-668,14916,-437,163,-83
2648,-576,14788,-437,138,-68
2656,-704,14660,-423,140,-72
2724,-604,14732,-442,139,-60
2696,-680,14760,-449,149,-63
2668,-672,14760,-423,174,-50
2700,-648,14844,-452,150,-85
2584,-592,14708,-430,140,-89
2664,-600,14704,-446,135,-65
2552,-684,14828,-441,167,-54
2732,-652,14740,-429,147,-69
2568,-640,14676,-454,149,-81
2672,-640,14740,-435,142,-51
2588,-652,14824,-437,136,-69
2576,-588,14888,-432,125,-68
2676,-688,14916,-458,136,-68
2672,-540,14716,-434,136,-63
2632,-660,14708,-450,144,-59
2676,-700,14952,-457,131,-53
2680,-668,14696,-438,146,-67
2636,-652,14716,-440,162,-68
2680,-604,14936,-444,164,-68
2664,-604,14808,-439,119,-86
2556,-656,14816,-429,162,-66
2636,-700,14796,-451,175,-64
2596,-600,14700,-437,155,-66
2636,-660,14716,-440,144,-58
2728,-644,14740,-452,132,-57
2712,-600,14780,-443,141,-70
2644,-652,14856,-458,153,-57
2696,-680,14704,-438,127,-70
2720,-652,14824,-432,144,-62
2708,-660,14776,-426,148,-46
2604,-632,14800,-440,124,-91
2592,-660,14836,-436,143,-75
2596,-636,14760,-454,151,-66
2624,-576,14956,-461,133,-72
2668,-628,14764,-443,141,-68
2776,-672,14788,-447,121,-60
2552,-688,14696,-423,128,-51
2660,-704,14748,-425,165,-71
2516,-688,14788,-443,144,-98
2600,-540,14760,-449,159,-65
2620,-692,14716,-421,141,-55
2604,-648,14688,-443,120,-64
2648,-616,14768,-432,132,-85
2664,-628,14736,-428,131,-83
2580,-756,14832,-444,136,-72
2648,-576,14804,-415,164,-55
2616,-648,14624,-441,133,-59
2636,-588,14724,-437,124,-64
2624,-764,14788,-424,140,-67
2632,-728,14868,-456,141,-57
2764,-632,14840,-450,131,-58
2580,-612,14852,-423,126,-46
2624,-656,14920,-442,148,-61
2680,-628,14768,-440,146,-51
2636,-648,14888,-436,120,-67
2648,-620,14908,-441,160,-61
2688,-624,14828,-447,180,-72
2664,-656,14724,-415,146,-59
2556,-552,14780,-448,156,-72
2632,-556,14872,-440,124,-78
2660,-708,14700,-443,138,-80
2600,-604,14736,-448,149,-49
2660,-632,14828,-449,151,-73
2644,-640,14680,-432,144,-45
2692,-676,14844,-436,137,-52
2680,-612,14908,-437,143,-55
2752,-652,14880,-419,163,-61
2604,-580,14588,-445,145,-63
2612,-644,14800,-445,127,-65
2612,-632,14632,-435,149,-66
2548,-652,14728,-427,139,-59
2556,-640,14816,-439,131,-82
2612,-628,14816,-401,147,-51
2668,-672,14900,-434,157,-48
2648,-668,14788,-434,136,-55
2632,-640,14780,-441,146,-67
2560,-696,14664,-453,156,-71
2592,-640,14752,-452,130,-74
2704,-672,14900,-446,137,-42
2616,-680,14808,-432,140,-63
2592,-620,14796,-449,142,-67
2724,-624,14848,-445,148,-76
2616,-600,14652,-436,150,-48
2612,-780,14672,-448,154,-55
2724,-656,14824,-423,151,-49
2616,-656,14808,-429,142,-88
2624,-580,14764,-448,154,-73
2624,-608,14680,-418,132,-72
2708,-700,14772,-419,161,-78
2616,-684,14760,-434,152,-50
2584,-700,14732,-430,147,-78
2672,-668,14684,-426,128,-73
2648,-596,14688,-442,147,-72
2596,-640,14780,-431,128,-53
2672,-640,14664,-460,144,-57
2652,-616,14720,-438,160,-93
2652,-644,14892,-441,132,-59
2668,-664,14772,-441,135,-67
2672,-568,14732,-423,109,-81
2660,-664,14756,-445,143,-54
2644,-676,14812,-435,146,-74
2640,-648,14736,-429,154,-57
2660,-648,14836,-448,165,-72
2640,-748,14980,-435,151,-49
2740,-696,14696,-439,138,-82
2588,-592,14664,-440,148,-59
2608,-588,14768,-455,147,-59
2660,-704,14840,-427,156,-79
2668,-616,14816,-426,151,-67
2692,-756,14772,-436,145,-47
2488,-612,14688,-438,159,-64
2524,-684,14692,-440,149,-65
2680,-568,14720,-435,153,-41
2676,-604,14796,-441,150,-70
2660,-636,14880,-437,126,-70
2632,-636,14744,-440,146,-77
2720,-620,14840,-437,188,-76
2700,-676,14920,-415,133,-49
2604,-756,14708,-435,164,-49
2692,-632,14792,-418,132,-73
2636,-608,14792,-434,130,-72
2696,-672,14780,-443,145,-58
2684,-724,14804,-454,147,-81
2640,-604,14872,-453,168,-53
2640,-696,14816,-437,162,-41
2572,-628,14728,-427,146,-58
2624,-676,14740,-438,177,-76
2632,-524,14808,-439,147,-57
2592,-680,14852,-452,141,-48
2696,-688,14832,-431,167,-53
2624,-524,14732,-434,142,-65
2676,-648,14848,-434,183,-61
2668,-656,14812,-445,120,-47
2620,-660,14828,-435,157,-61
2644,-744,14956,-436,128,-43
2668,-628,14848,-437,144,-56
2736,-652,14812,-433,125,-67
2664,-536,14728,-425,153,-66
2628,-640,14832,-439,126,-81
2656,-572,14712,-438,143,-66
2552,-680,14908,-445,181,-71
2652,-660,14740,-416,109,-84
2608,-604,14828,-436,138,-61
2704,-692,14712,-445,134,-86
2672,-580,14924,-439,142,-60
2616,-676,14736,-448,143,-76
2608,-672,14716,-437,141,-62
2700,-676,14728,-449,138,-61
2608,-568,14716,-423,145,-66
2684,-672,14664,-439,154,-57
2680,-664,14852,-430,148,-47
2700,-580,14648,-436,155,-28
2568,-652,14772,-432,118,-59
2580,-568,14764,-455,159,-67
2740,-700,14888,-454,149,-72
2648,-644,14844,-434,160,-52
2636,-680,14840,-442,145,-81
2644,-684,14872,-445,158,-65
2756,-720,14692,-444,161,-75
2668,-616,14728,-432,129,-79
2600,-584,14808,-434,140,-73
2648,-640,14680,-447,143,-55
2700,-696,14964,-417,144,-69
2632,-568,14700,-450,147,-48
2756,-640,14748,-440,139,-73
2612,-648,14756,-436,155,-59
2572,-652,14868,-428,129,-74
2644,-580,14804,-455,135,-52
2648,-688,14908,-453,157,-76
2592,-572,14752,-446,147,-79
2712,-744,14796,-440,166,-46
2780,-688,14908,-437,138,-65
2572,-644,14924,-438,153,-59
2668,-620,14664,-423,144,-80
2668,-616,14716,-442,157,-42
2664,-528,14656,-441,128,-40
2692,-696,14984,-428,140,-78
2728,-604,14744,-445,153,-52
2576,-700,14852,-443,143,-52
2548,-544,14776,-421,130,-69
2692,-712,14892,-433,111,-32
2612,-668,14736,-445,122,-86
2624,-512,14660,-464,151,-93
2684,-696,14944,-437,112,-74
2588,-628,14764,-451,156,-72
2596,-652,14792,-465,129,-72
2680,-672,14716,-439,145,-59
2652,-636,14904,-426,139,-54
2712,-696,14844,-435,142,-69
2760,-668,14788,-428,141,-47
2680,-652,14748,-427,145,-73
2604,-700,14724,-434,141,-67
2676,-672,14768,-434,159,-49
2560,-636,14792,-437,180,-85
2736,-556,14888,-454,132,-52
2604,-652,14852,-429,167,-34
2656,-664,14876,-428,144,-83
2608,-728,14888,-432,139,-64
2584,-668,14828,-436,154,-58
2568,-672,14668,-447,140,-52
2704,-676,14832,-436,140,-76
2712,-640,14732,-429,129,-96
2652,-672,14760,-443,129,-58
2660,-680,14744,-435,168,-71
2584,-676,14804,-441,149,-36
2640,-560,14848,-426,136,-86
2656,-632,14880,-443,159,-46
2692,-656,14716,-435,138,-59
2700,-584,14736,-433,149,-40
2592,-608,14836,-441,153,-58
2720,-612,14868,-448,164,-60
2640,-700,14820,-458,162,-73
2608,-680,14828,-429,123,-63
2604,-724,14896,-437,140,-76
2688,-660,14872,-442,100,-62
2720,-688,14668,-446,142,-57
2648,-588,14712,-440,157,-63
2748,-640,14828,-436,149,-69
2664,-616,14648,-452,133,-46
2640,-552,14832,-448,141,-59
2692,-752,14820,-445,139,-55
2592,-772,14924,-422,150,-87
2648,-624,14816,-449,140,-35
2604,-688,14780,-450,154,-60
2692,-544,14912,-438,149,-67
2668,-716,14772,-425,122,-54
2692,-608,14880,-425,131,-94
2636,-640,14816,-450,147,-59
2728,-576,14872,-440,171,-53
2668,-604,14796,-422,144,-55
2712,-680,14816,-451,138,-80
2584,-668,14792,-425,178,-52
2596,-584,14796,-436,154,-58
2676,-664,14764,-429,149,-39
2756,-628,14824,-447,138,-56
2632,-588,14680,-439,150,-34
2592,-556,14992,-442,152,-66
2644,-572,14784,-428,143,-61
2692,-644,14764,-438,153,-70
2720,-696,14768,-440,136,-87
2628,-676,14708,-438,155,-50
2576,-664,14764,-441,139,-64
2672,-628,14780,-460,138,-62
2616,-632,14860,-451,146,-73
2600,-712,14796,-441,153,-99
2648,-648,14804,-441,155,-45
2580,-672,14732,-433,157,-76
2544,-716,14820,-440,137,-71
2712,-604,14884,-454,118,-64
2632,-520,14848,-442,148,-66
2712,-600,14824,-427,120,-60
2604,-644,14708,-454,141,-60
2716,-660,14688,-440,123,-75
2660,-684,14796,-433,143,-87
2524,-700,14852,-435,173,-78
2524,-668,14860,-439,136,-42
2592,-620,14692,-425,139,-76
2696,-600,14924,-432,155,-57
2688,-640,14860,-445,160,-41
2520,-572,14796,-435,144,-55
2684,-596,14820,-444,133,-72
2684,-676,14764,-447,149,-68
2708,-708,14720,-445,123,-70
2548,-640,14836,-457,155,-71
2688,-720,14696,-434,151,-62
2608,-632,14836,-441,174,-59
2664,-628,14804,-439,174,-66
2624,-536,14728,-430,144,-67
2628,-696,14748,-429,135,-90
2676,-668,14764,-439,152,-48
2680,-616,14804,-430,147,-55
2596,-708,14840,-432,144,-67
2604,-636,14784,-458,134,-62
2628,-652,14888,-447,132,-71
2700,-644,14904,-426,141,-84
2688,-644,14816,-440,186,-64
2592,-572,14796,-438,149,-82
2632,-692,14800,-443,129,-97
2684,-640,14804,-437,121,-83
2692,-712,14768,-435,131,-52
2668,-640,14768,-439,105,-78
2568,-632,14652,-442,156,-42
2568,-652,14880,-437,146,-50
2688,-720,14796,-428,127,-60
2636,-608,14856,-445,143,-91
2632,-592,14916,-433,138,-72
2680,-616,14836,-423,138,-77
2588,-616,14724,-442,141,-49
2580,-516,14844,-444,150,-62
2680,-652,14800,-424,137,-77
2624,-760,14896,-438,158,-58
2680,-624,14804,-436,172,-73
2668,-536,14872,-456,117,-75
2660,-660,14860,-424,146,-78
2592,-576,14776,-441,169,-68
2676,-696,14748,-426,133,-53
2668,-680,14824,-430,169,-74
2588,-560,15044,-448,140,-59
2664,-668,14860,-433,136,-63
2668,-640,14788,-441,152,-70
2636,-684,14776,-442,142,-61
2620,-632,14872,-422,134,-67
2728,-656,14912,-444,146,-89
2632,-628,14828,-446,143,-66
2632,-704,14852,-434,131,-66
2512,-720,14824,-445,131,-87
2664,-600,14868,-439,155,-59
2676,-696,14840,-435,139,-76
2692,-644,14860,-437,148,-56
2644,-608,14832,-429,140,-81
2744,-596,14772,-450,147,-47
2624,-676,14708,-425,123,-46
2592,-520,14708,-438,141,-56
2616,-604,14844,-441,146,-56
2632,-664,15048,-434,123,-66
2568,-624,14840,-426,145,-70
2668,-660,14680,-448,134,-45
2648,-664,14840,-413,147,-65
2664,-672,14796,-436,188,-77
2668,-632,14892,-445,146,-62
2692,-664,14752,-445,123,-72
2696,-772,14744,-439,175,-54
2600,-676,14664,-439,132,-60
2600,-732,14764,-432,124,-64
2688,-616,14744,-427,151,-65
2620,-608,14836,-436,120,-54
2544,-660,14708,-436,130,-66
2600,-684,14876,-418,110,-65
2620,-776,14812,-419,121,-50
2624,-616,14692,-467,128,-47
2584,-656,14772,-464,144,-61
2648,-636,14744,-436,145,-60
2572,-624,14780,-429,130,-57
2684,-616,14848,-452,126,-60
2688,-648,14816,-433,163,-79
2732,-720,14820,-424,119,-49
2652,-648,14848,-429,136,-71
2756,-564,14744,-438,143,-42
2608,-556,14776,-437,132,-54
2608,-700,14764,-423,142,-69
2636,-700,14868,-454,139,-49
2692,-656,14688,-442,135,-65
2664,-624,14888,-441,143,-56
2652,-584,14816,-444,134,-91
2660,-640,14836,-417,139,-70
2676,-700,14744,-435,143,-71
2756,-656,14820,-440,140,-71
2640,-672,14736,-465,128,-42
2684,-656,14784,-429,125,-42
2616,-640,14824,-436,138,-45
2660,-596,14916,-433,158,-78
2604,-716,14824,-439,164,-51
2668,-672,14836,-440,145,-62
2660,-592,14624,-447,155,-72
2716,-616,14872,-434,130,-53
2588,-552,14724,-438,156,-59
2616,-664,14620,-442,172,-71
2648,-696,14776,-429,147,-72
2600,-544,15032,-436,151,-51
2616,-752,14872,-441,164,-71
2636,-664,14712,-429,129,-86
2596,-656,14800,-448,140,-81
2712,-584,14744,-433,123,-79
2604,-652,14852,-434,158,-60
2600,-656,14596,-444,138,-50
2664,-684,14796,-440,165,-92
2572,-624,14828,-449,119,-53
2648,-632,14616,-448,105,-54
2592,-652,14784,-438,161,-81
2592,-520,14632,-426,170,-57
2692,-632,14928,-443,154,-49
2616,-568,14800,-431,143,-75
2728,-720,14860,-439,144,-62
2632,-656,14792,-418,132,-74
2632,-572,14776,-438,140,-69
2620,-580,14772,-449,136,-54
2696,-632,14808,-420,118,-70
2660,-736,14908,-450,147,-59
2560,-596,14744,-443,144,-83
2664,-716,14784,-444,126,-61
2520,-580,14864,-440,135,-67
2560,-672,14816,-461,98,-67
2628,-676,14680,-448,154,-50
2728,-568,14716,-439,146,-56
2616,-600,14884,-459,134,-63
2576,-612,14868,-446,149,-64
2572,-608,14788,-449,126,-96
2668,-604,14904,-434,128,-68
2624,-664,14788,-439,149,-78
2616,-568,14752,-437,139,-73
2648,-592,14720,-442,146,-63
2608,-588,14772,-442,182,-69
2696,-720,14716,-438,142,-60
2612,-696,14744,-453,161,-94
2604,-604,14840,-439,132,-53
2600,-624,14828,-439,114,-73
2632,-676,14716,-434,151,-65
2620,-560,14996,-430,141,-39
2680,-624,14780,-445,134,-45
2680,-616,14768,-443,154,-75
2680,-580,14824,-440,137,-64
2564,-640,14748,-451,129,-66
2704,-652,14832,-437,135,-61
2552,-668,14688,-435,153,-63
2664,-684,14648,-437,128,-86
2652,-628,14720,-459,143,-56
2636,-648,14740,-447,143,-59
2660,-572,14652,-440,135,-57
2664,-648,14812,-421,124,-61
2680,-640,14836,-454,151,-77
2636,-692,14700,-441,153,-80
2568,-644,14716,-432,151,-49
2596,-668,14808,-444,122,-69
2660,-724,14840,-437,148,-72
2676,-632,14736,-440,145,-53
2624,-660,14980,-424,150,-40
2572,-616,14768,-445,146,-38
2528,-620,14824,-435,143,-72
2584,-640,14772,-435,160,-60
2652,-628,14808,-445,151,-61
2576,-604,14828,-444,153,-64
2616,-632,14744,-433,153,-72
2632,-696,14776,-433,147,-78
2716,-700,14852,-425,131,-69
2620,-500,14804,-438,141,-67
2620,-672,14720,-414,139,-52
2640,-692,14836,-437,128,-63
2608,-672,14756,-450,153,-41
2692,-672,14772,-431,152,-50
2652,-592,14796,-427,155,-73
2648,-652,14844,-433,159,-74
2556,-624,14836,-445,141,-69
2680,-612,14756,-434,155,-84
2640,-560,14712,-426,129,-56
2664,-624,14804,-434,134,-72
2696,-604,14756,-430,124,-68
2636,-660,14788,-443,146,-59
2636,-676,14756,-444,139,-81
2692,-676,14792,-445,142,-79
2568,-604,14852,-424,169,-71
2700,-592,14716,-428,154,-68
2668,-572,14768,-434,149,-35
2592,-608,14824,-450,120,-67
2696,-764,14692,-442,149,-51
2620,-600,14832,-442,139,-70
2648,-604,14808,-429,131,-37
2700,-568,14732,-444,142,-83
2772,-708,14784,-445,152,-56
2648,-696,14904,-440,151,-54
2628,-604,14752,-430,136,-59
2584,-652,14784,-432,127,-62
2688,-592,14828,-441,134,-57
2592,-628,14804,-435,133,-70
2724,-640,14832,-427,152,-72
2700,-536,14848,-440,149,-72
2616,-740,14816,-427,153,-88
2616,-640,14892,-456,153,-61
2596,-664,14896,-449,162,-68
2668,-644,14832,-447,139,-66
2632,-544,14780,-432,129,-60
2660,-664,14824,-433,133,-71
2644,-704,14700,-440,137,-49
2680,-652,14760,-443,159,-67
2568,-660,14764,-437,143,-58
2660,-672,14836,-436,134,-64
2780,-588,14808,-434,151,-88
2616,-608,14812,-437,149,-74
2584,-568,14852,-443,142,-60
2644,-672,14836,-426,142,-66
2676,-640,14796,-434,120,-69
2632,-552,14724,-452,131,-46
2640,-588,14868,-439,135,-57
2624,-584,14828,-449,170,-55
2660,-604,14796,-432,122,-80
2604,-680,14868,-442,158,-59
2632,-636,14756,-433,153,-74
2548,-572,14936,-453,134,-86
2580,-704,14876,-427,116,-66
2772,-532,14716,-441,137,-67
2684,-696,14956,-453,125,-66
2680,-616,14712,-447,147,-66
2756,-656,14880,-425,131,-68
2636,-628,14868,-442,131,-63
2604,-612,14744,-455,145,-94
2616,-636,14816,-440,162,-49
2636,-680,14912,-453,152,-40
2616,-640,14876,-434,131,-66
2668,-524,14788,-444,123,-78
2612,-568,14692,-450,114,-61
2528,-616,14732,-421,144,-61
2600,-684,14900,-440,147,-70
2716,-548,14728,-447,124,-75
2632,-576,14860,-434,146,-58
2620,-700,14688,-430,135,-58
2732,-632,14644,-453,131,-40
2704,-668,14696,-433,161,-81
2648,-588,14852,-433,160,-81
2692,-592,14872,-453,144,-48
2652,-596,14756,-444,145,-43
2608,-616,14848,-432,166,-77
2684,-604,14916,-449,142,-55
2704,-604,14772,-430,167,-73
2588,-636,14856,-461,129,-57
2680,-524,14860,-437,135,-70
2696,-640,14788,-418,140,-63
2624,-576,14724,-439,137,-61
2676,-652,14948,-434,170,-76
2532,-612,14808,-436,134,-31
2556,-572,14768,-437,167,-78
2532,-572,14840,-438,138,-77
2616,-724,14840,-425,143,-74
2736,-660,14884,-452,120,-47
2620,-676,14788,-441,168,-75
2592,-656,14932,-425,163,-66
2632,-576,14748,-433,142,-61
2620,-660,14716,-447,142,-64
2624,-628,14884,-447,152,-50
2624,-620,14756,-418,122,-57
2664,-536,14920,-437,139,-69
2748,-728,14708,-442,154,-85
2628,-632,14852,-437,148,-80
2552,-628,14828,-445,149,-64
2636,-664,14728,-449,135,-53
2636,-620,14592,-434,139,-63
2636,-628,14720,-421,148,-61
2692,-672,14852,-429,129,-65
2576,-704,14848,-436,132,-55
2664,-668,14880,-444,145,-66
2768,-632,14812,-433,140,-71
2660,-652,14820,-415,142,-63
2556,-664,14848,-442,168,-57
2612,-592,14800,-446,133,-73
2544,-688,14840,-433,137,-60
2612,-528,14792,-428,148,-61
2636,-648,14776,-424,138,-64
2536,-580,14736,-447,145,-88
2668,-744,14900,-426,145,-83
2668,-668,14756,-449,123,-68
2672,-512,14828,-419,158,-74
2680,-740,14836,-428,158,-75
2692,-664,14752,-429,156,-66
2700,-700,14800,-445,120,-59
2652,-680,14704,-435,136,-77
2680,-732,14888,-447,131,-68
2624,-632,14864,-440,135,-76
2604,-636,14764,-438,140,-82
2620,-624,14724,-450,164,-63
2624,-608,14796,-441,146,-72
2668,-724,14680,-454,138,-48
2692,-580,14752,-445,138,-72
2548,-700,14944,-439,154,-64
2624,-684,14752,-437,120,-64
2592,-660,14852,-425,136,-58
2588,-644,14724,-443,149,-63
2584,-672,14692,-450,146,-62
2592,-696,14716,-441,144,-86
2700,-616,14776,-456,112,-45
2680,-736,14868,-437,141,-59
2728,-596,14840,-432,135,-86
2572,-652,14680,-445,155,-73
2640,-632,14708,-448,148,-78
2648,-568,14732,-424,151,-67
2676,-596,14696,-427,159,-49
2744,-712,14808,-425,132,-42
2652,-732,14780,-414,161,-58
2636,-628,14704,-445,123,-69
2592,-724,14688,-435,139,-66
2620,-572,14808,-431,174,-73
2540,-640,14724,-430,150,-58
2572,-600,14828,-435,137,-44
2660,-584,14760,-413,120,-58
2544,-588,14836,-446,146,-79
2660,-712,14808,-442,133,-55
2576,-672,14792,-434,126,-81
2548,-576,14736,-451,137,-67
