Fs,100
Logging Type,0
Initialization time,36.5
Waiting time,3
ax,ay,az,gx,gy,gz
-12,-812,15032,-447,156,-86
-208,-828,14796,-398,132,-63
-252,-828,14884,-478,124,-91
-200,-780,14836,-387,135,-64
-184,-864,14872,-454,104,-86
-176,-812,14852,-405,171,-98
-256,-732,15104,-461,185,-90
-228,-876,14548,-420,124,-79
-228,-776,14880,-450,131,-88
-132,-880,14948,-424,149,-100
-224,-792,14816,-437,139,-102
-204,-768,14752,-416,135,-83
-204,-716,14956,-426,149,-100
-212,-908,14776,-435,164,-96
-164,-828,14808,-438,140,-87
-92,-892,14924,-429,150,-100
-120,-732,14920,-433,144,-76
-128,-780,14900,-429,113,-102
-212,-692,14816,-416,137,-71
-212,-740,14916,-431,144,-96
-164,-776,14796,-418,170,-61
-192,-720,14968,-443,158,-84
-228,-796,14836,-425,154,-76
-76,-828,14920,-444,143,-102
-176,-832,14872,-433,153,-83
-160,-780,14924,-431,118,-89
-124,-852,14968,-423,152,-61
-132,-856,14752,-423,145,-70
-252,-700,14904,-424,139,-72
-104,-700,14876,-423,130,-60
-196,-868,14896,-436,138,-103
-164,-812,14664,-417,144,-64
-112,-808,14856,-425,149,-70
-104,-808,14944,-429,173,-83
-172,-796,14944,-439,126,-81
-132,-904,14956,-436,143,-86
-112,-924,14820,-425,131,-85
-128,-760,14800,-426,126,-91
-128,-820,14892,-446,135,-96
-172,-844,14856,-421,143,-58
-140,-900,14840,-422,156,-95
-120,-740,14816,-424,149,-90
-116,-812,14832,-428,138,-63
-172,-792,14760,-408,131,-85
-176,-812,14844,-433,119,-85
-124,-840,14852,-434,138,-74
-184,-812,14760,-427,164,-87
-176,-868,14844,-426,155,-103
-124,-804,14852,-431,121,-74
-192,-740,14692,-438,152,-79
-84,-848,14712,-413,137,-70
-120,-764,14840,-427,138,-65
-240,-764,14736,-429,159,-88
-228,-804,14764,-419,115,-92
-152,-764,14780,-422,137,-96
-212,-772,14688,-437,155,-92
-124,-832,14832,-436,139,-82
-168,-764,14932,-426,175,-80
-140,-816,15004,-436,156,-85
-160,-828,14932,-412,156,-88
-156,-808,14892,-414,146,-85
-156,-752,14844,-435,148,-85
-240,-792,14936,-418,150,-61
-80,-884,14864,-426,149,-106
-176,-816,14888,-421,156,-112
-176,-860,14888,-425,142,-59
-216,-784,14916,-416,151,-91
-92,-840,15052,-418,148,-92
-116,-804,14736,-438,115,-74
-80,-796,14784,-423,111,-96
-124,-896,14808,-431,145,-94
-160,-892,14772,-440,157,-79
-76,-876,14848,-441,127,-68
-244,-780,14896,-423,155,-115
-180,-792,14892,-442,166,-77
-196,-740,15004,-433,143,-88
-188,-728,14944,-428,177,-67
-192,-744,14792,-430,172,-59
-156,-744,14800,-429,132,-60
-136,-840,14844,-429,150,-94
-156,-712,14800,-426,152,-69
-56,-800,14836,-436,151,-78
-264,-828,14860,-417,129,-77
-72,-792,14884,-433,151,-87
-220,-876,15040,-414,137,-56
-120,-800,14916,-421,148,-94
-120,-788,14824,-431,141,-81
-136,-772,14780,-424,149,-84
-180,-892,14900,-442,118,-61
-160,-848,14836,-424,144,-55
-188,-812,14840,-416,129,-85
-176,-756,14832,-427,137,-84
-192,-848,14808,-417,143,-84
-44,-892,14744,-420,165,-77
-176,-728,14884,-422,168,-105
-172,-768,14900,-412,140,-66
-36,-780,14936,-424,140,-86
-140,-708,14808,-417,121,-85
-220,-792,14744,-428,151,-74
-140,-812,14780,-439,153,-108
-56,-736,14904,-427,153,-79
-168,-740,14756,-421,125,-84
-92,-856,14816,-423,157,-78
-168,-824,14936,-422,136,-66
-324,-864,14880,-435,168,-66
-184,-820,14888,-438,154,-96
-56,-752,14788,-419,148,-90
-72,-684,14832,-418,144,-99
-248,-728,14704,-446,156,-100
-196,-776,14852,-421,151,-83
-176,-780,14816,-421,131,-79
-156,-800,14720,-436,138,-91
-200,-728,14932,-425,176,-80
-148,-768,14964,-427,142,-83
-152,-788,14904,-427,155,-105
-184,-740,14836,-447,138,-98
-236,-836,15008,-416,164,-98
-88,-776,14828,-421,117,-74
-120,-852,14904,-432,151,-94
-172,-824,14844,-436,143,-99
-128,-740,14848,-429,180,-74
-88,-788,14824,-414,153,-78
-288,-800,14888,-447,156,-78
-48,-756,14828,-423,161,-96
-144,-856,14888,-426,173,-96
-204,-800,14832,-435,127,-63
-240,-820,14820,-430,141,-95
-188,-736,15008,-422,176,-99
-44,-800,14808,-427,160,-67
-100,-760,14908,-431,150,-75
-116,-792,14932,-426,129,-84
-268,-828,14796,-426,138,-80
-112,-740,14732,-440,149,-74
-164,-856,14872,-430,170,-81
-148,-820,14804,-422,120,-71
-136,-760,14860,-419,163,-95
-88,-808,14868,-432,135,-76
-176,-876,14832,-430,148,-77
-188,-808,14860,-430,168,-93
-192,-772,14940,-430,134,-99
-128,-808,14804,-411,146,-85
-236,-816,14876,-436,144,-85
-184,-728,14876,-441,156,-81
-136,-816,14924,-425,125,-66
-88,-812,14968,-424,157,-87
-204,-672,14884,-430,136,-77
-236,-844,14812,-437,172,-90
-224,-872,14772,-433,129,-82
-208,-880,14812,-438,150,-80
-152,-892,14776,-429,139,-79
-176,-852,14796,-436,143,-71
-144,-772,14780,-406,155,-76
-256,-804,15040,-426,159,-78
-192,-664,14932,-414,140,-79
-228,-776,14828,-428,134,-91
-208,-768,14896,-412,159,-94
-112,-804,14900,-422,150,-103
-196,-732,14800,-428,150,-87
-240,-796,14824,-441,137,-91
-216,-824,14836,-431,155,-65
-128,-776,14960,-442,141,-96
-180,-804,14864,-431,126,-78
-128,-764,14888,-432,133,-77
-160,-752,14920,-428,140,-71
-192,-796,14860,-426,144,-82
-108,-856,14880,-433,152,-103
-96,-768,14964,-437,132,-86
-216,-780,14916,-430,155,-95
-200,-800,14828,-418,179,-71
-172,-768,14996,-439,164,-78
-152,-832,15024,-438,162,-95
-172,-744,14888,-414,179,-72
-80,-836,14888,-427,132,-94
-112,-876,14800,-421,168,-71
-124,-736,14784,-434,162,-74
-252,-820,14756,-429,140,-85
-92,-860,14788,-444,151,-77
-112,-768,14892,-436,128,-87
-168,-760,14868,-421,162,-80
-68,-780,14804,-422,135,-61
-212,-756,14892,-423,131,-66
-196,-820,14904,-415,151,-94
-156,-728,14824,-427,124,-85
-104,-776,14884,-445,166,-67
-176,-808,14852,-429,169,-88
-188,-808,14896,-413,145,-59
-152,-872,14668,-418,178,-50
-100,-784,14900,-436,154,-88
-176,-828,14932,-423,114,-80
-132,-804,14816,-415,139,-91
-168,-820,14836,-412,125,-90
-232,-760,14836,-423,143,-82
-248,-804,14752,-432,173,-95
-288,-808,14872,-418,150,-84
-228,-800,14944,-427,154,-102
-240,-848,14764,-423,155,-120
-84,-804,14904,-424,167,-109
-100,-860,14888,-442,136,-81
-68,-784,14928,-444,147,-80
-208,-716,14812,-425,168,-83
-180,-764,14776,-415,139,-98
-204,-780,14808,-443,126,-92
-24,-696,14896,-428,168,-64
-188,-900,14952,-428,141,-70
-44,-800,14816,-421,145,-103
-120,-888,14796,-421,147,-93
-164,-852,14888,-436,172,-81
-96,-856,14836,-420,139,-82
-200,-792,14916,-433,138,-89
-136,-752,15016,-411,150,-51
-128,-732,14952,-444,172,-104
-140,-860,14888,-430,142,-74
-128,-824,14872,-420,150,-79
-132,-852,14744,-444,155,-93
-136,-776,14792,-429,176,-77
-176,-856,14892,-431,162,-97
-172,-792,14820,-421,144,-73
-108,-760,14856,-439,123,-56
-128,-828,14976,-426,129,-86
-100,-856,14824,-431,152,-85
-220,-716,14936,-431,168,-86
-240,-840,14748,-430,179,-67
-212,-788,14908,-417,153,-80
-216,-708,14796,-429,171,-89
-120,-796,14992,-448,155,-85
-104,-832,14948,-415,143,-81
-156,-816,14780,-430,198,-86
-80,-840,14852,-430,172,-60
-192,-816,14848,-416,140,-76
-236,-864,14920,-430,131,-60
-148,-788,14932,-433,143,-81
-196,-780,14768,-422,150,-95
-200,-756,14896,-430,156,-56
-136,-740,14904,-442,144,-83
-96,-768,14972,-432,160,-88
-200,-772,14912,-424,125,-83
-152,-796,14836,-434,134,-91
-152,-768,14908,-413,167,-71
-196,-820,14944,-439,153,-102
-204,-836,14924,-421,146,-65
-116,-768,14936,-425,151,-75
-68,-724,14780,-437,144,-87
-196,-804,14916,-409,124,-80
-144,-824,14812,-437,153,-116
-188,-748,14960,-429,130,-70
-112,-752,14832,-439,174,-73
-192,-800,14784,-446,129,-79
-100,-836,14868,-423,167,-83
-108,-836,14976,-422,164,-99
-148,-792,14872,-444,171,-83
-144,-872,14780,-426,121,-94
-160,-868,14824,-434,136,-83
-208,-792,14824,-433,151,-97
-132,-808,14736,-436,162,-96
-140,-816,14912,-430,149,-96
-116,-772,14744,-426,163,-83
-196,-824,14824,-434,182,-87
-136,-788,14876,-439,158,-77
-132,-744,14768,-418,138,-101
-176,-836,14820,-413,147,-105
-232,-840,14872,-420,166,-61
-240,-860,14792,-420,159,-72
-196,-764,14924,-428,140,-97
-176,-788,14896,-417,149,-87
-256,-800,14920,-425,163,-84
-48,-768,14924,-416,134,-78
-200,-816,14932,-433,155,-69
-192,-852,14764,-420,150,-99
-212,-860,14940,-425,142,-74
-96,-812,15016,-416,146,-76
-288,-876,14852,-422,163,-94
-112,-868,14964,-439,159,-79
-104,-788,14848,-424,133,-71
-164,-760,14856,-438,156,-84
-64,-792,15024,-422,135,-101
-144,-764,14860,-428,135,-83
-184,-768,14844,-439,151,-104
-144,-716,14944,-406,164,-87
-176,-760,14976,-434,138,-78
-196,-804,14940,-421,170,-58
-180,-716,14896,-419,159,-77
-116,-768,14860,-423,134,-77
-196,-748,14772,-429,137,-78
-316,-792,14916,-427,135,-91
-148,-776,15008,-427,146,-101
-148,-848,14884,-425,153,-78
-220,-728,14796,-423,128,-86
-140,-788,14680,-420,156,-112
-140,-784,14880,-425,136,-94
-252,-852,14808,-438,136,-94
-116,-788,14840,-424,140,-87
-64,-824,14872,-413,139,-81
-188,-800,14856,-433,144,-96
-140,-832,14796,-439,155,-79
-112,-808,14844,-442,146,-96
-160,-752,14832,-430,143,-73
-84,-780,14780,-419,136,-70
-124,-816,14972,-434,147,-84
-200,-884,14724,-427,147,-92
-180,-832,14976,-428,156,-72
-200,-844,14856,-431,156,-86
-208,-744,14792,-434,162,-59
-124,-796,14884,-435,140,-80
-228,-792,14780,-416,139,-54
-124,-864,14816,-419,152,-74
-244,-828,14780,-433,137,-83
-92,-800,14776,-423,163,-88
-156,-856,14824,-436,142,-61
-152,-820,14844,-437,164,-96
-200,-820,14932,-416,162,-101
-128,-736,14768,-415,130,-107
-124,-712,14816,-421,120,-90
-84,-756,14952,-422,124,-98
-252,-888,14828,-429,157,-75
-112,-788,14848,-430,138,-67
-204,-740,14828,-432,137,-83
-196,-780,14920,-422,143,-68
-204,-860,14988,-422,160,-79
-144,-776,15012,-434,157,-88
-88,-804,14940,-444,160,-78
-108,-812,14696,-449,159,-74
-76,-816,14900,-420,159,-88
-100,-896,14784,-434,170,-91
-124,-800,14792,-443,142,-93
-220,-764,14936,-435,142,-81
-244,-732,14800,-420,156,-100
-228,-892,14980,-417,151,-83
-140,-848,14796,-424,150,-65
-140,-776,14808,-417,156,-91
-172,-720,14932,-449,134,-109
-180,-808,14976,-429,178,-60
-176,-736,14880,-419,161,-73
-168,-744,14764,-412,136,-94
-144,-828,14848,-414,150,-81
-236,-892,14896,-411,129,-84
-232,-812,14852,-416,141,-91
-208,-816,14824,-420,131,-67
-156,-824,14872,-426,106,-84
-176,-912,14816,-419,175,-96
-140,-780,14852,-419,138,-97
-208,-792,14892,-416,133,-69
-128,-816,14880,-432,143,-88
-176,-760,14736,-424,134,-84
-104,-856,14916,-434,150,-84
-212,-752,14760,-435,139,-49
-96,-824,14836,-425,156,-73
-184,-832,14884,-429,140,-81
-152,-836,14840,-438,160,-91
-224,-860,14720,-427,142,-86
-184,-828,14772,-419,149,-78
-156,-816,14816,-442,104,-93
-140,-884,14872,-440,144,-65
-104,-852,14988,-423,152,-100
-132,-752,14832,-420,166,-63
-140,-756,14856,-437,143,-69
-80,-744,14820,-440,159,-88
-172,-752,14916,-436,149,-69
-136,-748,14792,-425,152,-83
-272,-784,14864,-429,152,-88
-76,-852,14872,-422,152,-102
-124,-808,14940,-443,163,-87
-196,-728,14828,-422,120,-84
-68,-768,14880,-441,125,-91
-188,-764,14852,-420,154,-77
-88,-820,14860,-412,153,-87
-144,-880,14896,-421,169,-68
-120,-768,14964,-426,144,-71
-200,-800,14856,-411,170,-73
-156,-840,14816,-421,129,-65
-148,-828,14860,-421,150,-71
-124,-736,14916,-433,194,-75
-152,-820,14808,-418,129,-90
-176,-804,14868,-426,153,-89
-100,-740,14904,-437,176,-81
-188,-856,14780,-419,150,-90
-156,-752,14824,-429,141,-81
-256,-776,14856,-433,172,-97
-228,-804,14784,-426,142,-69
-64,-712,14832,-430,167,-78
-128,-808,14840,-434,142,-94
-208,-840,14976,-435,156,-73
-120,-804,14940,-436,129,-89
-120,-824,14860,-422,161,-79
-100,-824,14920,-432,127,-106
-164,-744,14924,-425,151,-58
-200,-712,14796,-427,146,-75
-44,-676,14772,-433,162,-69
-216,-792,14828,-417,146,-68
-136,-868,14916,-442,135,-87
-128,-860,14800,-421,143,-80
-64,-788,14784,-415,174,-103
-124,-796,14832,-413,153,-64
-196,-780,14776,-424,159,-71
-140,-804,14976,-409,158,-85
-112,-816,14928,-420,135,-86
-232,-820,14844,-442,126,-91
-160,-756,14764,-430,112,-94
-36,-784,14980,-424,133,-91
-64,-824,14932,-429,153,-63
-316,-876,15024,-412,146,-105
-124,-720,14884,-429,171,-94
-96,-744,14952,-439,150,-74
-124,-768,15004,-445,158,-93
-76,-800,14760,-421,126,-66
-264,-848,14832,-418,137,-80
-216,-720,14664,-412,174,-77
-192,-764,14916,-434,142,-82
-160,-816,14872,-415,153,-90
-124,-816,14800,-425,140,-102
-136,-740,14896,-415,176,-85
-196,-740,14920,-439,145,-91
-140,-776,14820,-430,139,-69
-140,-768,14800,-414,154,-87
-144,-892,14836,-413,135,-69
-224,-784,14844,-420,159,-88
-228,-848,14912,-432,139,-111
-84,-804,14816,-415,144,-82
-72,-804,14832,-426,137,-70
-136,-868,14856,-432,131,-77
-76,-736,14936,-448,151,-96
-132,-772,14884,-429,141,-53
-200,-832,14948,-423,151,-86
-188,-828,14828,-409,153,-63
-176,-800,14992,-437,148,-93
-128,-784,14872,-427,170,-70
-140,-740,14872,-421,178,-85
-156,-792,14808,-434,159,-69
-188,-716,14944,-423,144,-79
-204,-852,15004,-442,143,-93
-156,-792,14904,-445,145,-86
-188,-896,14964,-433,134,-101
-124,-740,14792,-421,148,-86
-120,-832,14856,-425,152,-94
-164,-800,14896,-423,161,-87
-204,-828,14960,-438,129,-72
-160,-740,14892,-440,157,-50
-196,-816,14964,-437,141,-80
-240,-812,14816,-436,140,-74
-212,-780,14984,-441,152,-69
-172,-780,14860,-445,158,-83
-140,-796,14880,-449,116,-46
-248,-656,14900,-427,125,-70
-120,-784,14908,-429,157,-67
-164,-856,14924,-424,142,-77
-204,-800,14860,-420,132,-87
-192,-840,14920,-424,137,-57
-120,-716,14904,-449,162,-97
-232,-824,14820,-433,165,-91
-240,-844,14908,-436,127,-78
-192,-812,14948,-432,145,-92
-164,-752,14912,-410,139,-67
-136,-788,14960,-423,141,-84
-132,-740,14708,-431,150,-89
-100,-740,14844,-415,157,-80
-200,-856,14956,-438,178,-80
-136,-724,14904,-424,103,-87
-180,-784,14888,-429,177,-93
-188,-828,14772,-429,146,-87
-100,-692,14752,-439,179,-65
-228,-764,14960,-424,154,-84
-140,-804,14896,-432,144,-69
-68,-868,14880,-413,168,-80
-180,-812,14808,-434,153,-65
-264,-808,14832,-447,175,-71
-160,-832,14808,-435,148,-109
-84,-740,14800,-428,128,-89
-132,-848,14808,-423,144,-83
-124,-788,14876,-427,143,-80
-92,-912,14800,-436,157,-70
-112,-840,14924,-434,152,-83
-80,-816,14784,-431,146,-81
-168,-848,14928,-434,137,-73
-136,-788,14832,-438,147,-104
-208,-796,14896,-415,150,-83
-228,-896,14752,-430,170,-72
-176,-840,14916,-412,183,-84
-208,-888,14908,-412,150,-85
-92,-812,14972,-443,127,-98
-176,-816,14932,-430,111,-68
-164,-792,14892,-433,160,-87
-92,-832,14976,-437,125,-91
-100,-860,14872,-420,147,-70
-160,-768,14988,-438,140,-91
-196,-764,14872,-429,167,-73
-120,-760,14880,-416,114,-83
-228,-840,14848,-433,115,-72
-120,-824,14904,-441,163,-62
-160,-832,14840,-433,155,-95
-132,-800,14896,-436,170,-69
-208,-856,14816,-447,142,-63
-228,-928,14960,-424,152,-97
-132,-796,14724,-433,153,-71
-156,-832,14904,-433,158,-85
-212,-800,14580,-429,127,-97
-100,-792,14832,-432,158,-79
-172,-792,14764,-418,138,-82
-192,-844,14852,-418,140,-60
-112,-708,15052,-403,144,-84
-152,-764,14820,-431,159,-58
-192,-772,14844,-441,119,-75
-184,-760,14916,-420,138,-66
-252,-892,14884,-433,140,-79
-152,-708,14992,-429,144,-60
-156,-840,14848,-436,140,-74
-168,-748,14768,-413,139,-77
-60,-904,14880,-435,131,-84
-96,-840,14928,-414,137,-76
-124,-876,14960,-428,129,-86
-228,-848,14968,-416,151,-89
-232,-752,14788,-434,147,-105
-152,-876,14852,-432,144,-75
-256,-740,14896,-423,152,-78
-108,-748,14884,-415,124,-81
-160,-820,14924,-427,141,-105
-224,-764,14688,-429,161,-87
-124,-816,14996,-437,138,-90
-164,-748,14860,-434,154,-73
-116,-856,14888,-427,148,-80
-160,-840,14808,-429,147,-79
-192,-820,14768,-424,123,-86
-176,-824,14912,-449,140,-90
-200,-796,14920,-432,161,-92
-112,-820,15024,-414,145,-66
-96,-828,14904,-416,147,-79
-172,-880,14792,-432,140,-95
-136,-688,14740,-423,167,-89
-24,-860,14904,-437,127,-86
-228,-904,14840,-435,122,-85
-140,-904,14872,-428,138,-87
-68,-868,14844,-430,156,-89
-156,-780,14908,-424,115,-91
-188,-840,14816,-429,137,-73
-184,-840,14988,-443,116,-66
-256,-784,14868,-423,135,-77
-224,-804,14800,-411,130,-112
-152,-804,14968,-415,162,-70
-264,-804,14812,-424,135,-94
-100,-920,14768,-418,181,-84
-136,-816,14848,-428,141,-61
-188,-788,14804,-428,167,-98
-248,-804,14844,-407,153,-99
-100,-808,14856,-451,137,-59
-184,-780,14996,-424,136,-73
-224,-844,14860,-423,122,-77
-76,-820,14880,-420,132,-77
-228,-688,14800,-432,148,-110
-196,-836,14968,-414,157,-73
-168,-832,14860,-410,152,-84
-128,-760,14832,-428,138,-69
-176,-732,14864,-437,134,-81
-112,-832,14828,-437,145,-111
-192,-788,14876,-427,153,-85
-244,-848,14784,-413,165,-63
-76,-788,14948,-433,118,-91
-252,-808,14824,-422,171,-96
-128,-832,14792,-425,142,-81
-252,-788,14888,-426,156,-87
-220,-816,14832,-438,130,-104
-124,-716,14836,-429,155,-78
-232,-828,15012,-430,124,-82
-196,-796,14868,-440,168,-82
-92,-736,14864,-430,141,-63
-120,-848,14816,-433,136,-66
-216,-808,14788,-423,177,-62
-92,-840,14688,-444,133,-83
-92,-820,14776,-416,156,-66
-68,-828,14828,-417,143,-64
-160,-796,14956,-425,144,-76
-200,-804,14716,-435,141,-60
-172,-892,14856,-434,129,-98
-220,-728,14868,-407,161,-82
-140,-908,14836,-408,155,-54
-116,-828,14832,-429,138,-67
-152,-800,14892,-425,145,-86
-152,-868,14896,-411,135,-81
-172,-800,14856,-429,175,-73
-192,-792,15040,-437,138,-84
-108,-880,14948,-439,135,-58
-196,-756,14760,-421,111,-95
-96,-868,14836,-432,135,-99
-264,-808,14848,-434,128,-61
-176,-820,14900,-431,148,-109
-232,-716,14932,-437,159,-67
-144,-772,14788,-425,121,-68
-144,-828,14968,-425,141,-77
-152,-684,14844,-418,161,-79
-112,-700,14912,-432,141,-93
-172,-828,14940,-430,161,-76
-224,-792,14912,-427,143,-72
-252,-768,14824,-430,142,-93
-84,-780,15004,-432,139,-85
-144,-824,14996,-425,157,-96
-176,-768,14828,-430,158,-53
-88,-824,14976,-434,157,-85
-112,-836,14852,-436,128,-87
-88,-776,14760,-424,181,-90
-140,-800,14940,-438,141,-80
-192,-828,14716,-419,147,-82
-104,-816,14936,-427,152,-81
-204,-820,14928,-422,126,-44
-244,-792,14960,-433,164,-81
-176,-776,14908,-418,136,-86
-108,-724,14900,-431,146,-79
-144,-828,14776,-420,141,-64
-116,-856,14760,-424,156,-92
-196,-848,14868,-435,140,-82
-100,-836,14872,-440,158,-63
-164,-868,14704,-440,163,-106
-192,-876,14808,-436,138,-83
-180,-828,14856,-421,146,-100
-148,-860,14888,-420,167,-81
-132,-840,14916,-431,149,-89
-228,-824,14960,-428,164,-98
-144,-840,14908,-419,118,-71
-128,-800,14904,-454,163,-66
-216,-760,14864,-425,152,-70
-140,-812,14828,-427,131,-54
-140,-824,14804,-444,172,-73
-172,-788,14952,-441,126,-88
-248,-740,15004,-429,167,-87
-248,-904,14904,-430,126,-96
-128,-820,14816,-419,127,-83
-108,-820,14792,-412,131,-77
-204,-800,14892,-420,152,-86
-148,-748,14780,-429,165,-63
-164,-804,15024,-435,148,-69
-124,-816,14768,-429,148,-66
-284,-776,14932,-428,143,-81
-188,-744,14832,-417,146,-68
-152,-840,14884,-422,166,-87
-244,-796,14948,-441,157,-85
-88,-744,14908,-431,140,-51
-156,-840,14900,-437,129,-76
-168,-820,14756,-449,138,-87
-72,-856,14768,-428,140,-70
-160,-788,14916,-431,128,-95
-256,-804,14972,-427,158,-97
-284,-824,14940,-444,129,-67
-112,-832,14952,-424,169,-84
-164,-884,14932,-432,133,-67
-156,-768,14880,-416,145,-87
-196,-784,14760,-436,154,-74
-188,-884,14932,-420,142,-62
-72,-880,14992,-428,148,-80
-240,-800,14876,-420,161,-87
-68,-852,14860,-431,157,-65
-76,-824,14936,-435,165,-78
-248,-776,14864,-414,186,-64
-176,-864,14888,-417,143,-72
-288,-784,14800,-430,161,-103
-248,-732,14868,-416,129,-76
-112,-868,14936,-432,150,-66
-196,-784,14780,-430,156,-71
-228,-856,14836,-443,164,-92
-96,-788,14784,-420,140,-94
-156,-740,14812,-432,180,-70
-116,-744,14840,-432,139,-65
-108,-816,14724,-450,141,-110
-72,-864,14924,-441,148,-102
-240,-824,14836,-444,149,-71
-116,-872,14832,-419,136,-70
-196,-868,14788,-428,168,-98
-208,-804,14920,-432,181,-77
-36,-892,14872,-425,146,-70
-84,-824,14716,-404,153,-81
-108,-784,14844,-423,144,-74
-120,-800,14776,-429,128,-79
-156,-820,14876,-424,147,-94
-184,-860,14900,-433,145,-84
-188,-772,14924,-423,139,-66
-148,-828,14904,-432,139,-96
-156,-904,14872,-439,150,-58
-152,-808,14896,-435,129,-85
-180,-728,14872,-429,134,-75
-120,-776,14772,-419,158,-83
-176,-736,14828,-421,168,-76
-44,-772,14920,-418,126,-88
-96,-772,14844,-420,137,-76
-188,-816,14896,-429,153,-63
-172,-860,14752,-427,152,-58
-156,-832,14888,-434,145,-75
-308,-860,14852,-421,154,-93
-176,-808,14928,-425,137,-86
-176,-892,14916,-437,136,-85
-204,-728,14908,-424,160,-98
-120,-800,14892,-424,152,-70
-120,-792,14892,-427,125,-92
-128,-820,15060,-429,160,-48
-84,-820,14920,-425,121,-90
-132,-812,14888,-423,138,-68
-204,-816,14760,-429,133,-75
-168,-856,14756,-435,151,-77
-160,-820,14964,-429,150,-101
-168,-848,14816,-420,127,-91
-156,-848,14764,-421,154,-46
-244,-840,14868,-412,149,-92
-168,-792,14976,-410,153,-80
-176,-768,14808,-414,153,-74
-144,-784,14832,-433,145,-95
-212,-756,14940,-445,149,-85
-172,-780,14804,-424,146,-69
-188,-840,14832,-420,124,-73
-160,-800,14792,-431,119,-98
-220,-776,14848,-429,145,-90
-192,-808,14944,-411,162,-95
-220,-828,14888,-428,146,-79
-188,-768,14868,-414,142,-73
-72,-872,14860,-435,151,-78
-100,-764,14716,-447,147,-99
-196,-744,14944,-414,160,-86
-156,-828,15012,-443,172,-83
-112,-772,14920,-419,139,-79
-240,-848,14960,-431,157,-86
-100,-816,14848,-438,162,-89
-292,-892,14848,-434,157,-93
-188,-800,14884,-444,162,-72
-196,-792,14908,-420,176,-64
-180,-832,14848,-411,142,-71
-140,-828,14808,-431,158,-93
-144,-868,14872,-431,163,-79
-260,-756,14908,-419,134,-103
-176,-832,14856,-416,158,-80
-20,-928,14888,-451,159,-96
-140,-796,14888,-440,150,-87
-240,-976,14856,-422,139,-76
-212,-780,14864,-407,154,-87
-120,-796,14888,-424,162,-77
-48,-852,14808,-433,147,-73
-164,-780,14984,-444,163,-67
-200,-748,14836,-428,175,-88
-256,-756,14820,-419,160,-89
-240,-780,14960,-428,125,-77
-164,-800,14796,-433,126,-68
-196,-780,14804,-444,158,-84
-240,-788,14880,-413,127,-82
-84,-896,14876,-422,127,-112
-212,-728,14856,-424,164,-68
-264,-820,14816,-427,167,-91
-232,-776,14880,-424,162,-79
-192,-780,14668,-421,172,-89
-116,-816,14852,-430,157,-82
-220,-776,14836,-431,145,-91
-244,-784,14916,-408,142,-75
-36,-812,14892,-420,113,-83
-172,-816,14916,-424,144,-75
-8,-836,14808,-426,145,-72
-124,-880,14916,-438,168,-66
-256,-716,14960,-418,151,-73
-156,-808,14816,-424,118,-84
-144,-828,14748,-432,128,-88
-284,-792,14908,-434,157,-92
-100,-728,14852,-442,148,-80
-116,-788,14996,-428,165,-68
-220,-736,14868,-422,139,-65
-172,-772,14820,-429,138,-78
-252,-768,14780,-411,173,-88
-112,-828,14924,-433,131,-86
-112,-800,14892,-443,176,-61
-252,-840,14900,-421,165,-85
-136,-800,14800,-422,174,-63
-236,-868,14896,-422,130,-78
-188,-836,14792,-431,145,-72
-108,-764,14852,-422,138,-70
-232,-900,14972,-418,164,-81
-144,-780,14900,-418,150,-91
-80,-740,14808,-424,164,-73
-164,-780,14860,-423,135,-75
-244,-780,14960,-445,175,-87
-84,-872,14896,-419,157,-103
-108,-836,14932,-439,159,-81
-240,-744,14844,-420,135,-80
-140,-812,14788,-435,155,-61
-204,-800,14856,-421,136,-97
-176,-688,14944,-426,139,-66
-160,-776,14812,-411,136,-80
-76,-868,14908,-425,161,-68
-116,-848,14812,-420,156,-86
-196,-784,14880,-445,175,-75
-148,-732,14904,-431,146,-87
-208,-720,14856,-436,162,-62
-204,-756,14764,-441,149,-92
-208,-780,14760,-443,134,-85
-164,-828,14736,-422,185,-104
-208,-868,14908,-423,150,-94
-176,-756,14952,-421,144,-84
-140,-760,14808,-422,153,-79
-200,-728,14888,-422,118,-85
-120,-744,14808,-432,149,-88
-144,-824,14752,-418,131,-79
-136,-804,14928,-432,154,-83
-120,-712,14904,-435,140,-67
-216,-852,14776,-443,117,-79
-168,-804,14752,-420,136,-78
-156,-820,14852,-427,149,-83
-176,-880,14892,-431,163,-57
-56,-740,14996,-416,155,-91
-148,-804,14708,-422,121,-69
-200,-776,14920,-427,145,-101
-156,-848,14940,-416,165,-75
-136,-824,14888,-419,125,-94
-104,-800,14744,-441,151,-67
-220,-808,14812,-437,181,-92
-124,-784,14780,-425,162,-81
-148,-756,14860,-442,147,-99
-148,-792,14936,-435,167,-75
-248,-920,14824,-425,162,-91
-264,-820,14952,-435,156,-83
-136,-792,14864,-427,150,-93
-164,-724,14760,-422,143,-83
-172,-832,14816,-440,146,-75
-120,-816,14912,-434,148,-80
-204,-688,14904,-448,149,-68
-196,-736,14896,-428,162,-100
-180,-812,15044,-436,157,-82
-220,-800,14872,-412,131,-92
-176,-820,14772,-421,140,-76
-208,-856,14828,-434,139,-62
-196,-836,14860,-427,152,-91
-144,-868,14880,-416,135,-58
-128,-752,14776,-412,145,-94
-136,-796,15020,-439,146,-69
-124,-720,14840,-416,127,-94
-152,-876,14880,-432,147,-66
-12,-876,14828,-437,153,-93
-176,-788,14852,-422,145,-88
-208,-812,14932,-411,163,-108
-136,-868,14796,-423,134,-78
-268,-852,14896,-420,137,-85
-128,-792,14928,-426,166,-80
-188,-820,14848,-435,156,-93
-184,-800,14804,-428,155,-68
-176,-764,14740,-439,167,-82
-192,-784,14844,-426,149,-52
-260,-860,14832,-415,110,-65
-104,-856,14736,-417,151,-88
-100,-752,14932,-440,138,-71
-204,-736,14912,-446,156,-81
-180,-788,14904,-424,139,-78
-144,-788,14896,-442,152,-79
-120,-844,14824,-434,137,-95
-156,-772,15088,-427,142,-89
-116,-780,14992,-426,153,-77
-124,-768,14772,-416,155,-90
-260,-740,14760,-419,145,-70
-148,-748,14828,-423,149,-73
-164,-880,14888,-427,154,-95
-156,-804,14940,-437,143,-65
-152,-828,14864,-437,146,-98
-152,-772,15064,-448,151,-86
-196,-832,14780,-432,130,-71
-132,-876,14912,-433,148,-84
-164,-816,14948,-437,142,-94
-72,-772,14832,-447,167,-78
-200,-764,14932,-439,119,-61
-180,-832,14824,-408,119,-94
-164,-744,14520,-427,141,-49
-136,-772,14728,-468,150,-82
-184,-816,14856,-427,130,-68
-144,-804,14800,-441,154,-68
-148,-784,14972,-420,162,-79
-112,-820,15032,-445,150,-85
-148,-856,14808,-417,137,-84
-144,-836,14760,-461,143,-91
-132,-840,15024,-426,149,-82
-196,-760,14840,-416,140,-85
-216,-788,14652,-427,164,-87
-208,-788,14908,-437,140,-85
-168,-868,14856,-416,122,-104
-112,-844,14804,-433,169,-74
-132,-896,14836,-440,165,-92
-100,-792,14948,-407,166,-80
-176,-740,15020,-416,163,-62
-220,-752,14816,-423,155,-83
-160,-796,14936,-438,145,-94
-160,-720,14904,-434,142,-76
-172,-684,15036,-427,160,-102
-192,-872,14848,-439,155,-65
-112,-868,14688,-446,145,-77
-184,-780,14828,-427,159,-60
-260,-832,14884,-415,162,-83
-132,-900,14856,-416,136,-87
-120,-708,14892,-417,136,-104
-56,-812,15080,-427,177,-81
-112,-848,14900,-433,164,-86
-148,-832,14856,-423,189,-92
-188,-812,14888,-424,154,-82
-224,-808,14868,-425,137,-80
-236,-864,14736,-410,142,-82
-220,-768,14872,-424,163,-72
-96,-776,14772,-420,145,-76
-188,-816,14812,-425,157,-104
-236,-816,14848,-414,151,-58
-112,-872,14848,-439,168,-90
-48,-796,14640,-411,150,-88
-160,-820,14808,-430,146,-78
-120,-856,14772,-410,147,-86
-220,-792,14868,-412,134,-77
-96,-776,14728,-428,156,-96
-244,-828,14792,-427,148,-85
-132,-844,14892,-418,157,-98
-228,-752,14848,-440,158,-82
-68,-836,15016,-427,119,-84
-148,-832,14756,-425,147,-93
-232,-736,14908,-427,166,-93
-264,-824,14864,-431,165,-99
-160,-844,14960,-428,126,-73
-88,-792,14808,-405,136,-62
-192,-804,14960,-442,138,-71
-180,-744,14740,-434,154,-82
-156,-800,14724,-439,139,-50
-120,-812,14836,-420,158,-77
-156,-876,14840,-434,173,-81
-196,-944,14956,-423,142,-69
-188,-716,14740,-420,152,-70
-120,-812,14872,-441,148,-87
-108,-808,14832,-423,172,-79
-156,-756,14764,-438,151,-75
-124,-688,14784,-424,140,-84
-100,-732,14768,-436,188,-98
-228,-776,14844,-417,132,-73
-56,-796,14940,-429,148,-80
-184,-808,14948,-437,134,-82
-172,-868,14944,-433,162,-99
-148,-856,14908,-423,126,-80
-124,-780,14884,-425,139,-62
-104,-800,14880,-426,152,-90
-232,-708,14848,-437,159,-106
-208,-784,14844,-442,125,-88
-160,-840,14848,-419,176,-77
-76,-728,14792,-417,158,-99
-164,-720,14904,-425,154,-86
-160,-892,14908,-419,178,-89
-268,-744,14716,-427,158,-112
-156,-816,14928,-435,124,-96
-112,-852,14780,-422,137,-73
-264,-924,14868,-424,132,-87
-172,-768,14896,-426,166,-115
-212,-804,14900,-440,129,-90
-220,-788,14788,-417,164,-85
-152,-776,14892,-415,136,-82
-136,-820,14900,-438,155,-89
-112,-836,14800,-446,153,-85
-144,-812,14632,-418,117,-92
-184,-808,14892,-425,160,-78
-308,-916,14836,-413,145,-58
-112,-812,14784,-419,127,-64
-232,-768,14828,-427,123,-79
-264,-808,14896,-438,115,-87
-220,-856,14944,-426,153,-86
-84,-780,14896,-423,141,-75
-100,-812,15028,-423,129,-81
-96,-808,14884,-441,168,-92
-164,-876,14804,-420,139,-84
-120,-804,14800,-430,152,-76
-128,-880,14848,-421,147,-70
-244,-896,14904,-422,164,-73
-112,-776,14860,-439,163,-69
-208,-808,14828,-434,150,-58
-128,-884,14740,-432,161,-81
-160,-884,14808,-422,158,-74
-240,-776,15052,-414,136,-85
-100,-780,14908,-423,163,-76
-224,-736,14868,-438,146,-76
-156,-764,14780,-433,187,-64
-132,-884,14780,-431,157,-108
-184,-828,14860,-433,146,-93
-152,-912,14760,-428,126,-80
-208,-836,14824,-413,161,-80
-256,-816,14892,-420,151,-82
-112,-776,14904,-441,171,-91
-188,-776,14912,-421,143,-67
-100,-676,14896,-421,116,-74
-20,-860,14896,-424,155,-97
-76,-760,14836,-438,116,-80
-216,-728,15116,-429,159,-88
-188,-824,14832,-403,149,-87
-232,-904,15080,-418,129,-92
-160,-884,14780,-437,168,-92
-200,-828,14824,-429,145,-80
-188,-736,14920,-442,164,-96
-128,-796,14860,-407,140,-69
-196,-724,14848,-441,182,-75
-60,-732,14844,-415,159,-60
-172,-672,14684,-412,141,-98
-148,-764,14704,-423,161,-100
-188,-868,14888,-415,147,-91
-128,-812,15004,-431,163,-96
-128,-928,14748,-426,153,-87
-168,-900,14868,-446,132,-57
-200,-860,14888,-411,162,-74
-228,-812,14832,-434,151,-68
-172,-740,14812,-415,152,-98
-120,-744,14848,-412,139,-83
-160,-824,14808,-414,162,-70
-100,-888,14808,-433,153,-90
-196,-816,14852,-426,158,-98
-116,-792,14712,-429,121,-69
-148,-876,14764,-436,127,-82
-152,-820,14828,-412,158,-74
-76,-780,14796,-430,129,-74
-244,-852,14752,-422,134,-85
-272,-784,14864,-424,150,-86
-84,-740,14848,-395,128,-75
-140,-892,15000,-422,173,-98
-204,-928,14844,-436,132,-56
-196,-688,14788,-447,145,-81
-48,-776,14828,-429,147,-66
-112,-676,14944,-412,158,-83
-184,-816,14944,-419,146,-86
-132,-684,14832,-426,133,-77
-88,-840,14748,-445,151,-76
-200,-740,14708,-445,143,-74
-220,-696,14940,-429,127,-101
-168,-792,14968,-423,128,-89
-240,-832,14940,-420,173,-81
-104,-760,14888,-434,140,-99
-152,-716,14764,-430,151,-61
-148,-804,14936,-426,124,-85
-132,-852,15056,-421,141,-63
-204,-760,14912,-423,148,-79
-128,-792,14672,-432,148,-53
-208,-784,14912,-437,153,-83
-128,-784,15020,-423,129,-93
-56,-804,14936,-415,134,-87
-244,-856,14844,-433,154,-73
-136,-788,14904,-430,137,-76
-164,-772,14904,-459,138,-98
-144,-736,14904,-429,153,-69
-56,-908,14908,-425,154,-61
-176,-808,14844,-420,131,-83
-156,-804,14892,-426,148,-59
-92,-880,14844,-428,148,-93
-140,-768,15020,-430,150,-75
-112,-864,14808,-424,152,-77
-156,-868,14852,-428,163,-77
-88,-796,14788,-413,124,-80
-160,-916,14836,-435,149,-61
-152,-812,14772,-433,128,-82
-200,-808,14876,-443,151,-68
-152,-788,14836,-429,138,-78
-244,-768,14796,-417,130,-80
-168,-752,14884,-433,143,-84
-140,-808,14764,-427,126,-70
-164,-896,14852,-423,141,-74
-156,-800,14884,-440,176,-89
-172,-884,14948,-425,154,-72
-176,-760,14860,-418,127,-100
-124,-872,14844,-435,158,-74
-172,-756,14984,-435,146,-81
-60,-780,14708,-415,144,-72
-76,-776,14760,-428,145,-78
-224,-856,14772,-400,164,-76
-76,-812,14932,-445,136,-91
-148,-788,14836,-424,154,-79
-160,-792,14888,-422,133,-71
-176,-788,14872,-427,143,-83
-156,-856,14792,-429,133,-98
-132,-820,14756,-407,133,-72
-116,-888,14900,-425,152,-63
-100,-816,14764,-423,128,-99
-96,-768,14916,-426,148,-92
-196,-816,14868,-447,136,-84
-120,-812,14852,-425,134,-57
-8,-812,14884,-427,158,-79
-136,-748,14744,-440,131,-87
-112,-856,14936,-442,118,-73
-108,-812,14888,-421,150,-69
-160,-860,14924,-439,157,-62
-56,-844,14980,-445,163,-96
-176,-816,14896,-421,133,-57
-188,-788,14852,-425,141,-112
-132,-788,14824,-425,159,-87
-96,-844,14844,-422,149,-70
-152,-728,14876,-423,133,-105
-144,-848,14728,-423,175,-82
-228,-908,14992,-414,129,-73
-172,-820,14752,-405,144,-94
-156,-684,14916,-430,122,-100
-188,-764,14868,-456,137,-83
-176,-820,14940,-447,161,-78
-160,-836,14844,-435,141,-69
-192,-728,14944,-430,149,-102
-220,-800,14884,-428,144,-87
-192,-720,14940,-427,146,-57
-132,-784,14836,-433,129,-96
-48,-776,14804,-422,138,-52
-188,-824,14876,-439,128,-79
-156,-828,14668,-420,142,-49
-176,-904,14932,-432,156,-80
-204,-884,14884,-439,156,-79
-160,-832,14812,-438,130,-89
-220,-836,15008,-425,186,-63
-168,-816,14876,-410,158,-75
-160,-828,14900,-436,122,-87
-148,-728,14880,-416,146,-76
-100,-752,14920,-422,158,-102
-80,-792,14832,-427,141,-71
-144,-768,15028,-414,150,-78
-300,-756,14740,-423,155,-98
-252,-944,14940,-421,157,-72
-212,-920,14800,-427,143,-112
-156,-868,14816,-427,157,-85
-188,-800,14840,-420,170,-92
-176,-796,14848,-421,145,-78
-280,-820,14960,-426,160,-90
-60,-720,14900,-434,106,-68
-116,-752,14760,-431,144,-74
-88,-836,14852,-445,160,-63
-232,-980,14852,-418,148,-74
-88,-908,14780,-413,141,-78
-112,-808,14828,-422,144,-71
-208,-860,14904,-423,147,-74
-108,-788,15052,-424,169,-86
-100,-664,14976,-437,133,-100
-156,-732,14996,-429,157,-86
-104,-796,14816,-442,175,-89
-148,-828,14996,-433,152,-67
-132,-728,14904,-409,161,-81
-168,-760,14688,-437,146,-110
-112,-840,14788,-423,169,-74
-180,-768,14848,-426,156,-99
-156,-740,14904,-426,139,-70
-136,-780,14840,-437,134,-60
-188,-772,14828,-432,121,-77
-156,-736,14876,-435,155,-58
-96,-916,14816,-443,161,-101
-100,-764,14768,-431,146,-89
-172,-888,14880,-427,145,-68
-232,-752,14824,-423,122,-93
-168,-728,14724,-437,144,-91
-164,-800,14880,-426,132,-75
-152,-780,14920,-442,162,-83
-168,-844,14892,-434,156,-81
-264,-840,14860,-422,140,-99
-220,-848,14776,-419,133,-69
-244,-880,14904,-450,159,-87
-200,-800,14796,-419,164,-62
-200,-800,15008,-425,168,-58
-160,-836,14816,-426,168,-97
-232,-744,14780,-431,129,-102
-148,-752,14820,-432,164,-69
-108,-820,14784,-422,144,-75
-172,-848,14896,-428,155,-91
-236,-788,14836,-434,133,-84
-100,-856,14832,-424,137,-86
-164,-824,14868,-424,147,-54
-168,-908,14840,-417,144,-66
-196,-796,14924,-429,121,-88
-60,-832,14956,-432,155,-66
-132,-784,14852,-435,132,-78
-144,-772,14896,-425,138,-90
-164,-744,14832,-419,144,-61
-208,-676,14956,-435,132,-85
-156,-788,14744,-424,164,-93
-168,-824,14832,-424,166,-94
-116,-840,14916,-436,167,-103
-144,-828,14864,-439,142,-90
-188,-840,14840,-441,136,-92
-136,-768,14820,-436,133,-90
-164,-824,14800,-414,153,-119
-144,-732,14912,-424,130,-81
-120,-828,14892,-425,129,-70
-120,-808,14872,-430,138,-83
-160,-764,14876,-430,150,-72
-124,-796,14912,-434,152,-81
-192,-780,14804,-426,125,-77
-120,-788,14904,-444,151,-92
-104,-928,14800,-408,157,-89
-152,-856,14868,-416,143,-66
-128,-828,14932,-415,158,-61
-192,-832,14852,-416,157,-76
-112,-720,14764,-428,136,-71
-196,-776,14908,-415,157,-82
-196,-788,14852,-434,145,-66
-96,-816,14720,-410,149,-80
-228,-756,14908,-432,159,-76
-192,-848,14792,-406,122,-76
-196,-828,14768,-418,159,-89
-132,-780,14844,-436,136,-61
-240,-768,14908,-433,155,-80
-140,-748,14872,-414,152,-84
-84,-728,14888,-423,154,-58
-208,-724,14824,-439,140,-86
-244,-780,14876,-419,162,-89
-156,-752,14916,-431,156,-69
-44,-792,14768,-424,155,-88
-180,-880,14996,-420,133,-100
-132,-856,14988,-437,127,-57
-196,-896,15044,-432,141,-94
-172,-856,14920,-442,166,-78
-180,-848,14940,-418,159,-84
-36,-760,14744,-451,138,-83
-188,-756,14852,-442,168,-97
-112,-756,14784,-429,133,-110
-128,-756,14852,-434,158,-69
-116,-788,14960,-445,157,-64
-160,-872,14936,-421,181,-89
-96,-872,14880,-420,140,-58
-216,-880,14848,-435,159,-77
-152,-796,14924,-440,146,-78
-220,-880,14872,-438,149,-72
-168,-784,14748,-421,135,-80
-164,-772,14932,-419,137,-65
-60,-788,14872,-423,134,-75
-136,-792,14920,-416,154,-74
-212,-848,14880,-409,119,-89
-208,-656,14808,-408,157,-104
-188,-744,14880,-433,143,-83
-276,-808,14784,-432,103,-63
-220,-820,14872,-429,152,-55
-204,-736,14804,-428,156,-67
-172,-792,14828,-442,138,-82
-208,-816,14824,-455,135,-68
-248,-860,14952,-437,149,-95
-188,-840,14864,-436,165,-60
-100,-844,14812,-446,157,-103
-184,-912,14948,-430,146,-79
-272,-768,14752,-425,145,-80
-176,-804,14880,-431,149,-76
-124,-792,14784,-439,148,-98
-184,-856,14776,-430,147,-60
-252,-856,14756,-430,139,-86
-172,-840,14860,-437,145,-86
-188,-836,14848,-419,177,-95
-264,-840,14836,-431,146,-82
-196,-764,15012,-430,126,-65
-92,-732,14944,-429,103,-80
-228,-756,14996,-413,138,-87
-64,-776,14724,-413,179,-72
-100,-736,14788,-415,121,-88
-172,-832,14924,-416,157,-60
-120,-840,14928,-430,151,-77
-120,-752,14928,-414,137,-85
-208,-872,14752,-439,176,-104
-124,-920,14752,-430,168,-70
-168,-832,14788,-440,169,-87
-176,-860,14928,-431,148,-74
-200,-816,14908,-413,144,-72
-136,-852,14768,-432,132,-83
-200,-912,14760,-427,187,-73
-168,-784,15044,-428,138,-73
-204,-748,14872,-417,163,-93
-88,-736,14800,-417,155,-87
-192,-800,14700,-408,150,-74
-140,-836,15052,-419,155,-72
-96,-744,14916,-428,166,-79
-176,-856,14940,-429,122,-93
-328,-740,14680,-420,136,-91
-44,-876,14976,-429,161,-84
-52,-692,14788,-427,159,-66
-196,-796,14904,-407,157,-84
-200,-836,14920,-432,119,-48
-120,-720,14780,-420,143,-82
-176,-752,14848,-432,140,-76
-244,-760,14788,-421,149,-83
-248,-800,14760,-424,152,-73
-96,-840,14892,-423,171,-66
-84,-848,14944,-435,138,-72
-152,-788,14836,-433,134,-94
-184,-840,14864,-430,158,-73
-136,-804,14932,-433,137,-61
-188,-884,14844,-421,158,-70
-160,-804,14748,-442,138,-76
-124,-752,14776,-416,148,-88
-200,-872,14876,-426,145,-97
-284,-732,14836,-439,148,-95
-168,-804,15064,-430,162,-84
-88,-824,14800,-431,161,-73
-136,-760,14844,-423,162,-95
-116,-864,14788,-421,140,-67
-152,-828,14816,-417,150,-84
-140,-836,14892,-437,176,-61
-176,-932,15000,-449,128,-73
-276,-724,14924,-430,158,-67
-136,-664,14848,-445,161,-87
-92,-848,14844,-417,149,-80
-196,-780,14728,-427,151,-81
-236,-880,14896,-415,170,-92
-184,-876,14852,-417,132,-76
-56,-772,14932,-420,133,-89
-112,-872,14752,-433,117,-84
-144,-764,14888,-423,139,-65
-164,-780,14880,-441,155,-66
-216,-828,14800,-434,160,-66
-152,-816,14900,-434,148,-66
-208,-816,14836,-407,181,-92
-320,-768,14988,-442,132,-77
-172,-764,14784,-440,124,-80
-40,-788,14868,-415,151,-58
-132,-876,14824,-425,122,-79
-180,-848,14912,-430,134,-66
-92,-744,14796,-435,159,-92
-164,-816,14868,-427,173,-66
-216,-804,14916,-421,157,-104
-180,-796,14892,-427,161,-74
-252,-840,14776,-427,178,-81
-180,-860,14980,-418,161,-81
-256,-764,15020,-418,161,-90
-212,-800,14868,-440,148,-73
-228,-784,14916,-447,186,-97
-264,-868,15032,-431,123,-66
-188,-736,14876,-430,139,-60
-160,-720,14796,-426,123,-77
-160,-776,14912,-430,148,-84
-204,-820,14784,-430,182,-96
-240,-816,14856,-421,143,-99
-92,-836,14928,-430,128,-99
-244,-792,14836,-437,159,-64
-176,-760,14856,-415,152,-71
-152,-784,14760,-421,167,-78
-180,-824,14920,-458,150,-73
-196,-772,14860,-428,173,-84
-100,-812,14700,-418,126,-82
-164,-780,14868,-404,128,-74
-112,-756,14724,-430,169,-83
-120,-784,14836,-421,130,-70
-100,-764,14788,-438,146,-71
-152,-768,14864,-427,150,-94
-188,-812,14924,-422,116,-82
-96,-792,14912,-431,158,-97
-124,-724,14864,-413,164,-88
-128,-744,14692,-419,157,-74
-112,-828,14764,-417,142,-106
-48,-804,14956,-429,130,-81
-92,-764,14816,-445,144,-67
-228,-764,14924,-432,135,-104
-108,-844,14864,-433,139,-84
-152,-680,14856,-421,168,-60
-108,-768,14928,-426,126,-81
-216,-876,14844,-409,151,-73
-240,-720,14864,-425,177,-68
-108,-816,14908,-417,153,-88
-88,-824,14800,-422,157,-90
-160,-736,14940,-422,142,-74
-284,-828,14920,-434,152,-82
-260,-832,14804,-416,143,-75
-164,-840,14896,-416,142,-65
-156,-832,14892,-425,123,-73
-176,-804,14828,-435,153,-88
-120,-776,14824,-438,151,-85
-156,-756,14772,-428,146,-89
-104,-820,14904,-440,154,-74
-196,-828,14980,-398,139,-75
-152,-664,14948,-429,155,-55
-212,-696,14708,-438,131,-84
-100,-804,14996,-426,157,-69
-156,-824,14792,-420,142,-89
-204,-764,14816,-432,174,-61
-312,-828,14704,-433,134,-68
-232,-856,14780,-421,157,-79
-108,-800,14832,-421,167,-91
-156,-764,14864,-426,151,-82
-84,-744,14940,-429,137,-60
-200,-852,14728,-427,165,-87
-112,-808,15040,-434,143,-74
-112,-848,14844,-421,155,-89
-176,-816,14940,-439,138,-85
-208,-804,14872,-436,139,-72
-228,-752,14736,-433,163,-53
-124,-792,14920,-406,171,-81
-144,-828,14860,-411,131,-76
-88,-828,14840,-421,139,-83
-164,-896,14884,-424,122,-86
-140,-788,14928,-427,156,-78
-188,-880,14824,-444,133,-102
-240,-804,14784,-427,160,-100
-128,-844,14896,-438,173,-71
-204,-916,14764,-422,148,-98
-280,-772,14900,-422,144,-86
-164,-868,14812,-428,165,-70
-244,-916,14916,-418,158,-80
-60,-736,14792,-432,160,-77
-216,-852,15040,-424,145,-76
-120,-836,14920,-415,160,-85
-176,-804,14844,-433,168,-58
-76,-892,14852,-437,128,-81
-176,-804,14860,-426,145,-89
-144,-744,14816,-431,146,-72
-188,-860,14784,-420,171,-65
-180,-836,14804,-413,157,-94
-132,-888,14912,-446,130,-95
-272,-792,14832,-438,115,-80
-288,-840,14932,-427,155,-75
-176,-760,14788,-413,175,-94
-164,-856,14808,-435,145,-88
-76,-908,14852,-429,155,-63
-104,-848,14800,-427,165,-62
-232,-744,14948,-440,156,-79
-192,-848,14808,-427,169,-91
-92,-820,14772,-420,169,-53
-152,-792,14928,-439,145,-80
-68,-868,14848,-434,135,-88
-188,-792,14852,-429,130,-89
-108,-888,14924,-429,161,-80
-188,-696,14828,-433,150,-103
-156,-804,14816,-434,155,-107
-260,-676,14840,-412,182,-86
-228,-824,14860,-437,136,-70
-192,-768,14924,-443,160,-88
-188,-800,14980,-428,159,-58
-204,-740,14776,-437,154,-65
-84,-824,14920,-438,162,-77
-76,-800,14856,-426,176,-94
-228,-768,14904,-429,142,-77
-216,-740,14792,-434,152,-91
-180,-772,14888,-443,173,-89
-232,-700,14976,-431,116,-102
-152,-776,14900,-426,179,-86
-256,-888,14804,-429,138,-90
-48,-812,14776,-428,161,-100
-96,-792,14760,-422,151,-96
-144,-764,14912,-434,128,-85
-132,-860,14740,-425,160,-89
-268,-880,14868,-450,125,-75
-188,-824,14852,-428,127,-77
-152,-828,14900,-450,152,-57
-172,-788,14824,-430,143,-90
-156,-768,14904,-434,113,-100
-184,-808,14832,-427,134,-80
-252,-772,14824,-427,144,-63
-188,-824,14856,-425,156,-79
-116,-832,14688,-422,178,-81
-188,-808,14684,-447,127,-104
-196,-828,15004,-437,152,-92
-136,-860,14880,-427,138,-88
-96,-808,14768,-425,125,-88
-128,-808,14940,-432,142,-86
-164,-784,14884,-420,146,-86
-100,-764,14856,-448,159,-62
-196,-716,14916,-428,163,-89
-148,-740,14904,-423,131,-67
-244,-764,14956,-405,160,-85
-64,-760,14808,-432,123,-80
-140,-780,14888,-427,110,-102
-160,-772,14768,-434,145,-92
-140,-816,14748,-420,132,-88
-132,-760,14824,-425,149,-68
-92,-860,14852,-420,157,-78
-112,-740,15020,-432,145,-59
-96,-840,14952,-466,143,-108
-132,-848,14844,-425,151,-94
-164,-824,14928,-435,144,-67
-52,-800,15012,-424,157,-78
-160,-760,14868,-413,111,-66
-164,-800,14732,-447,138,-69
-172,-716,14900,-416,136,-97
-156,-704,14996,-429,155,-83
-152,-756,14812,-419,177,-53
-112,-740,14808,-420,153,-94
-120,-732,14932,-447,149,-90
-184,-780,14740,-431,124,-82
-56,-872,14760,-415,143,-89
-24,-884,14808,-428,188,-78
-76,-804,14904,-430,128,-81
-116,-836,14920,-402,153,-62
-72,-852,14856,-440,153,-86
-224,-820,14808,-420,138,-76
-228,-904,14764,-436,163,-102
-184,-816,14780,-439,127,-76
-252,-788,14904,-446,150,-81
-116,-820,14812,-425,146,-78
-132,-796,14760,-427,145,-78
-188,-788,14852,-434,145,-80
-144,-908,15008,-445,149,-78
-204,-836,14908,-417,142,-98
-120,-792,14856,-437,130,-60
-180,-748,14852,-430,156,-68
-164,-816,14876,-419,142,-89
-128,-736,14876,-425,159,-100
-240,-860,14916,-428,147,-81
-124,-852,14772,-426,171,-92
-156,-804,14864,-438,149,-92
-236,-784,14756,-419,169,-71
-160,-812,14836,-408,151,-92
-180,-832,14796,-439,166,-71
-212,-800,14976,-435,123,-80
-124,-780,14612,-416,142,-72
-124,-832,15024,-432,150,-67
-156,-844,14728,-443,130,-71
-164,-872,14948,-422,160,-84
-172,-752,14700,-436,145,-90
-152,-816,14868,-434,141,-69
-176,-732,14944,-433,158,-78
-228,-700,14836,-437,154,-70
-132,-836,14776,-414,132,-61
-260,-792,14836,-432,147,-79
-172,-832,14924,-432,136,-71
-184,-764,14876,-418,156,-75
-168,-716,14864,-425,166,-82
-228,-796,14796,-425,179,-80
-176,-844,15088,-441,153,-76
-104,-808,14832,-424,139,-64
-88,-812,14788,-428,153,-102
-132,-840,14800,-438,158,-92
-36,-788,14848,-426,140,-84
-152,-788,14896,-434,146,-99
-152,-752,14756,-437,141,-83
-132,-776,14740,-436,143,-90
-172,-752,14900,-421,140,-84
-144,-760,14904,-416,149,-73
-84,-800,14960,-432,148,-93
-208,-776,14800,-448,125,-80
-120,-808,14912,-434,157,-108
-144,-712,14896,-436,169,-69
-192,-780,14872,-427,140,-70
-196,-760,14880,-426,144,-104
-164,-680,14888,-432,120,-68
-152,-784,14968,-427,143,-70
-208,-772,14828,-435,149,-89
-228,-824,14844,-433,165,-89
-188,-800,15000,-429,149,-90
-104,-780,14844,-434,166,-74
-168,-852,14852,-425,149,-88
-220,-840,14984,-437,171,-82
-200,-932,15020,-430,140,-64
-192,-788,14900,-411,164,-53
-220,-732,14752,-417,134,-92
-260,-788,14752,-442,144,-77
-228,-760,15012,-421,135,-72
-228,-824,15052,-422,159,-85
-148,-856,14992,-447,146,-90
-188,-876,14688,-432,144,-90
-148,-844,14768,-443,162,-85
-220,-752,15020,-410,143,-71
-136,-760,14880,-433,117,-93
-180,-768,14904,-410,165,-76
-132,-872,14796,-433,140,-85
-152,-756,14960,-431,154,-106
-80,-860,14784,-412,152,-103
-212,-780,14784,-404,161,-58
-140,-716,14888,-453,150,-63
-164,-864,14820,-430,124,-114
-228,-832,14952,-416,157,-84
-160,-860,14896,-419,149,-71
-256,-756,14916,-428,151,-88
-192,-796,14880,-433,135,-72
-212,-816,14864,-434,180,-80
-108,-760,14808,-421,164,-95
-180,-816,14848,-431,147,-88
-92,-808,14800,-431,186,-75
-208,-800,14852,-411,126,-84
-168,-784,14776,-435,170,-77
-196,-828,14824,-433,134,-102
-192,-828,14912,-440,143,-88
-164,-760,14824,-429,135,-95
-220,-828,14880,-415,142,-61
-180,-796,14976,-426,154,-79
-96,-812,14848,-422,133,-76
-160,-856,14848,-429,164,-81
-68,-744,14832,-441,124,-77
-144,-804,14888,-433,133,-67
-188,-700,14940,-426,125,-73
-128,-800,14816,-420,170,-90
-196,-828,14764,-448,159,-83
-40,-796,14804,-439,132,-87
-132,-792,14852,-425,138,-74
-264,-844,14920,-425,132,-74
-56,-840,14836,-428,124,-92
-76,-892,14752,-438,122,-84
-196,-836,14920,-438,157,-95
-320,-796,14844,-427,140,-78
-164,-840,14916,-424,156,-86
-252,-888,14828,-417,149,-88
-272,-752,14856,-420,123,-79
-144,-868,14888,-410,151,-82
-168,-728,14824,-401,172,-75
-176,-748,14892,-432,161,-89
-44,-868,14724,-414,144,-78
-152,-760,14932,-410,151,-98
-280,-784,14780,-439,138,-66
-152,-780,14720,-437,158,-126
-116,-800,14892,-409,150,-72
-112,-764,14736,-449,159,-67
-176,-764,14848,-440,149,-70
-236,-792,14908,-446,121,-84
-184,-800,14952,-427,132,-81
-148,-816,14940,-424,145,-102
-100,-816,14804,-410,137,-91
-140,-788,14808,-413,154,-76
-92,-752,14824,-419,134,-64
-140,-780,14820,-425,124,-88
-116,-944,14880,-430,161,-83
-252,-704,14864,-421,146,-75
-236,-836,14732,-438,146,-64
-244,-780,14920,-425,144,-92
-84,-824,14952,-425,140,-78
-140,-708,14772,-417,139,-98
-168,-740,14868,-409,159,-81
-180,-772,14948,-423,143,-85
-228,-776,14968,-427,155,-96
-124,-752,14856,-420,141,-75
-156,-808,14816,-417,146,-66
-160,-808,14804,-412,106,-118
-148,-844,14856,-420,137,-87
-156,-796,14812,-443,151,-80
-144,-820,14760,-451,138,-66
-100,-800,14832,-442,133,-68
-192,-832,14876,-441,173,-119
-140,-800,14836,-430,155,-91
-264,-800,14688,-435,158,-64
-104,-836,15012,-441,143,-90
-168,-756,14864,-417,138,-51
-208,-804,14796,-418,174,-88
-116,-756,14868,-421,152,-85
-212,-832,14760,-424,149,-55
-112,-836,14880,-426,145,-88
-100,-812,14928,-430,143,-85
-116,-916,14828,-427,157,-94
-172,-764,14812,-430,135,-93
-84,-744,14984,-427,129,-80
-112,-860,14788,-418,160,-95
-148,-884,14740,-431,137,-101
-112,-792,14744,-421,145,-82
-216,-780,14892,-428,155,-69
-80,-752,14784,-433,175,-59
-168,-864,14840,-429,171,-87
-244,-768,14968,-436,156,-92
-120,-720,14864,-438,158,-63
-88,-808,14852,-429,135,-80
-252,-860,14800,-441,162,-97
-60,-808,14836,-409,137,-81
-184,-732,14788,-426,159,-76
-192,-752,14796,-430,166,-78
-164,-748,15000,-426,161,-90
-272,-788,14800,-442,167,-88
-172,-820,14876,-427,145,-70
-180,-776,14896,-425,144,-79
-120,-740,14968,-418,137,-69
-124,-836,14912,-423,164,-89
-148,-780,14928,-424,134,-71
-88,-836,14856,-429,121,-86
-220,-704,14996,-423,149,-88
-112,-780,14848,-417,131,-57
-124,-792,14752,-405,140,-93
-220,-796,14896,-436,165,-59
-72,-828,14880,-440,159,-83
-172,-816,14872,-440,154,-84
-176,-844,14800,-423,146,-65
-88,-848,14908,-430,142,-92
-188,-848,14660,-440,149,-57
-108,-788,14844,-421,165,-93
-224,-776,14924,-432,152,-88
-108,-812,14952,-421,122,-63
-192,-716,14900,-444,158,-66
-152,-864,14916,-452,146,-75
-212,-768,14852,-430,146,-87
-92,-752,14944,-429,113,-92
-120,-928,14960,-421,119,-88
-156,-848,14980,-422,141,-98
-84,-740,14820,-437,142,-80
-284,-808,14800,-423,145,-103
-116,-836,14896,-430,159,-86
-196,-776,14984,-432,145,-88
-112,-824,14888,-417,154,-80
-132,-784,14708,-428,171,-96
-112,-828,14848,-431,157,-86
-204,-892,14764,-423,165,-79
-224,-800,14740,-417,135,-73
-196,-884,14828,-420,149,-88
-272,-852,14872,-417,151,-82
-48,-764,14928,-434,125,-63
-28,-796,14844,-427,141,-95
-200,-796,14820,-427,166,-95
-176,-892,14824,-434,194,-80
-136,-716,14888,-429,183,-77
-140,-792,14856,-424,158,-90
-316,-848,14724,-434,139,-103
-164,-760,14800,-431,143,-71
-160,-804,14896,-420,146,-87
-232,-844,14716,-436,156,-92
-88,-820,14908,-425,172,-75
-172,-792,14912,-427,132,-83
-184,-876,14892,-432,164,-101
-132,-716,14796,-425,137,-78
-24,-800,14800,-427,161,-66
-112,-868,14888,-421,147,-84
-132,-832,14852,-415,149,-69
-220,-848,14984,-445,176,-75
-152,-740,14988,-424,142,-89
-176,-752,15016,-457,168,-81
-80,-848,14876,-423,138,-87
-240,-860,14836,-424,169,-84
-136,-744,14892,-429,136,-83
-168,-776,14920,-410,166,-74
-216,-760,14908,-413,183,-70
-196,-816,14944,-408,136,-83
-196,-764,14968,-414,140,-65
-200,-860,15008,-416,165,-89
-172,-840,14760,-429,148,-75
-220,-840,14772,-430,130,-104
-136,-844,14832,-428,149,-66
-132,-816,14928,-434,124,-86
-200,-864,14976,-445,155,-72
-68,-800,14872,-425,159,-78
-68,-800,14804,-429,159,-109
-180,-748,14904,-428,144,-61
-248,-860,14908,-427,167,-89
-144,-824,14824,-434,138,-60
-176,-756,14888,-429,137,-75
-256,-856,14892,-454,130,-94
-96,-812,14768,-428,140,-83
-76,-836,14860,-429,169,-106
-132,-792,14820,-422,152,-68
-200,-844,14864,-426,177,-77
-164,-780,14872,-432,159,-73
-188,-832,14764,-409,144,-62
-184,-840,14932,-430,137,-70
-152,-836,14904,-422,144,-75
-120,-840,14952,-418,143,-77
-188,-816,14716,-427,144,-85
-184,-812,14872,-428,157,-76
-132,-836,14984,-427,144,-70
-112,-828,14916,-429,134,-67
-196,-800,14784,-419,163,-73
-156,-644,14852,-427,129,-87
-144,-816,14892,-420,156,-79
-132,-848,14812,-418,148,-79
-60,-900,14904,-443,155,-94
-188,-860,14888,-414,126,-73
-124,-764,14804,-438,172,-67
-216,-860,15036,-435,127,-80
-180,-868,14860,-424,180,-86
-144,-824,14984,-422,145,-86
-132,-804,14888,-435,137,-98
-224,-800,14892,-412,141,-66
-132,-752,14976,-430,155,-80
-212,-744,14872,-443,153,-57
-272,-828,14956,-429,135,-101
-116,-832,14980,-426,145,-80
-212,-768,14900,-427,140,-81
-128,-880,14800,-422,179,-74
-144,-740,14812,-435,142,-89
-112,-800,14832,-424,148,-92
-188,-816,14976,-429,152,-76
-220,-884,14864,-419,160,-79
-208,-792,14968,-439,150,-68
-252,-760,14728,-426,132,-81
-204,-840,14900,-440,138,-91
-160,-804,14784,-446,132,-84
-124,-748,14784,-423,165,-72
-184,-924,14920,-433,154,-62
-76,-808,14928,-440,140,-55
-200,-828,14924,-416,140,-65
-244,-808,14900,-433,141,-81
-164,-824,14896,-419,146,-65
-280,-852,14776,-426,127,-60
-92,-768,14776,-421,161,-103
-88,-832,14804,-429,150,-98
-240,-872,14788,-430,156,-62
-44,-824,14844,-422,158,-56
-144,-812,14928,-414,150,-74
-220,-804,14904,-439,144,-85
-160,-724,14956,-421,174,-79
-104,-812,14652,-423,143,-78
-112,-756,14824,-430,160,-75
-96,-780,14864,-417,149,-74
-196,-780,14964,-437,159,-83
-80,-828,14988,-432,169,-57
-160,-804,14908,-434,167,-93
-148,-860,14836,-416,126,-97
-164,-820,14904,-445,139,-94
-60,-788,14712,-420,142,-102
-244,-808,14872,-429,167,-61
-240,-808,14832,-403,160,-76
-140,-776,14780,-418,149,-94
-184,-716,14920,-448,117,-92
-132,-792,14884,-410,166,-89
-164,-788,14928,-422,149,-68
-120,-808,14924,-421,176,-65
-240,-744,14856,-444,161,-116
-200,-736,14868,-430,125,-93
-124,-792,14828,-429,146,-77
-76,-720,14912,-425,178,-77
-228,-788,14840,-438,160,-91
-216,-900,14784,-443,123,-66
-132,-756,14968,-434,139,-81
-152,-824,14860,-419,128,-90
-88,-816,14976,-437,135,-59
-224,-784,14680,-430,176,-91
-112,-872,14908,-426,151,-78
-76,-868,14984,-431,128,-93
-88,-784,15004,-427,149,-91
-160,-852,14932,-429,153,-79
-76,-872,14852,-421,148,-69
-136,-848,14800,-423,155,-99
-152,-772,14900,-419,132,-86
-200,-752,14780,-426,141,-78
-100,-868,14860,-430,153,-66
-136,-860,14932,-432,139,-98
-172,-788,14776,-420,131,-77
-144,-788,14872,-444,157,-93
-144,-836,14972,-447,150,-53
-88,-744,14944,-445,149,-72
-132,-848,14804,-423,140,-88
-120,-808,14852,-417,144,-89
-128,-820,14756,-426,172,-82
-84,-772,14824,-428,161,-81
-284,-848,14928,-427,165,-75
-176,-884,14972,-405,139,-66
-112,-812,14880,-439,141,-87
-240,-704,14948,-419,169,-66
-212,-800,14816,-429,154,-94
-132,-840,14956,-428,146,-107
-112,-884,14876,-424,134,-77
-112,-696,14900,-439,141,-85
-196,-840,14876,-425,145,-87
-160,-808,14804,-423,134,-77
-196,-808,14892,-416,134,-72
-264,-800,14816,-412,127,-79
-112,-792,14876,-426,147,-96
-152,-876,14952,-441,164,-84
-240,-808,14880,-438,111,-73
-140,-856,14976,-431,167,-67
-184,-780,14796,-427,137,-81
-144,-764,14840,-417,125,-95
-320,-756,14864,-428,132,-62
-156,-744,14748,-422,171,-63
-172,-776,14908,-430,153,-77
-140,-808,14864,-438,132,-64
-168,-772,14932,-442,149,-85
-164,-744,14836,-426,157,-64
-280,-788,14968,-429,169,-71
-56,-860,14824,-428,122,-76
-232,-832,14804,-416,115,-82
-120,-816,14832,-423,157,-77
-128,-760,14928,-439,146,-79
-172,-720,14776,-444,174,-92
-148,-860,14780,-411,123,-75
-216,-824,14884,-416,164,-92
-196,-896,14908,-422,168,-78
-112,-780,14960,-426,160,-81
-184,-812,14740,-423,159,-86
-208,-796,14852,-416,132,-83
-220,-840,14824,-433,142,-110
-116,-744,14916,-427,156,-81
-164,-732,14928,-426,157,-65
-132,-824,14872,-437,175,-56
-108,-792,14820,-428,158,-78
-188,-812,14928,-419,139,-82
-172,-768,14788,-421,149,-72
-240,-868,14736,-436,151,-75
-52,-780,14860,-429,124,-95
-164,-832,14848,-434,181,-70
-120,-844,14884,-430,137,-92
-148,-744,14960,-436,137,-95
-44,-668,14912,-410,152,-113
-92,-780,14968,-423,149,-67
-180,-804,14836,-400,115,-73
-164,-880,14816,-427,132,-83
16,-828,14700,-419,132,-109
-116,-724,14792,-426,176,-107
-196,-848,14808,-421,175,-88
-220,-848,14972,-428,127,-81
-160,-816,14880,-413,156,-70
-112,-768,14892,-433,160,-93
-228,-776,14880,-433,150,-59
-168,-876,14848,-427,160,-74
-216,-736,14940,-426,151,-65
-196,-808,14880,-426,139,-57
-124,-708,14876,-439,172,-85
-144,-740,14960,-442,151,-86
-148,-852,14904,-427,151,-75
-164,-844,14972,-419,154,-73
-152,-760,14936,-422,160,-83
-184,-840,14728,-429,159,-59
-172,-840,14908,-437,143,-79
-176,-856,14796,-429,148,-76
-144,-748,14824,-414,183,-74
-208,-708,14780,-446,169,-78
-180,-724,14880,-419,153,-67
-132,-844,14904,-409,161,-65
-112,-848,14832,-425,118,-80
-144,-788,14944,-434,159,-93
-180,-812,14896,-438,152,-74
-220,-844,14904,-430,155,-78
-184,-756,14832,-429,170,-93
-236,-816,14904,-410,143,-81
-160,-808,14952,-432,169,-60
-40,-832,14868,-437,154,-89
-144,-860,14972,-432,158,-88
-172,-740,14748,-443,121,-74
-156,-832,14916,-425,194,-56
-212,-748,14780,-420,142,-67
-188,-764,15004,-423,149,-86
-128,-800,15012,-447,164,-82
-184,-792,14828,-426,148,-88
-180,-904,14804,-436,144,-72
-140,-792,14788,-410,150,-80
-164,-708,14960,-440,156,-68
-104,-804,14896,-435,147,-78
-76,-840,14864,-421,146,-73
-172,-744,14792,-443,166,-75
-212,-788,14940,-432,125,-91
-144,-804,14776,-443,159,-74
-76,-796,14940,-444,149,-56
-176,-908,14852,-413,158,-97
-196,-700,14968,-417,148,-71
-112,-736,14868,-429,117,-103
-164,-756,14764,-427,151,-78
-108,-776,14928,-410,166,-89
-108,-788,14868,-435,172,-69
-100,-804,14856,-442,125,-66
-156,-760,14832,-427,137,-81
-68,-848,14716,-414,124,-89
-120,-824,14736,-411,176,-58
-164,-852,14836,-430,171,-90
-196,-748,14940,-421,156,-81
-188,-764,14808,-442,151,-78
-152,-808,14880,-443,140,-76
-192,-832,14816,-426,140,-94
-224,-752,14864,-428,135,-82
-164,-904,14852,-432,147,-77
-252,-836,14844,-434,135,-83
-176,-916,14908,-426,152,-97
-236,-840,14912,-424,156,-97
-92,-820,14856,-413,137,-71
-120,-784,14864,-425,150,-84
-188,-884,14760,-435,148,-75
-188,-804,14896,-432,166,-84
-224,-760,14796,-431,140,-85
-196,-752,14888,-406,151,-71
-184,-784,14724,-405,152,-73
-240,-868,15012,-405,155,-77
-140,-728,14808,-445,167,-76
-264,-784,14816,-415,174,-101
-112,-824,14808,-434,152,-97
-180,-828,14868,-435,154,-69
-212,-784,14920,-434,141,-59
-184,-828,14824,-428,144,-90
-136,-844,14824,-421,141,-84
-264,-832,14836,-441,122,-70
-112,-800,14852,-406,147,-80
-208,-816,14900,-414,133,-87
-184,-768,14836,-424,140,-61
-164,-804,14852,-424,142,-88
-204,-752,14776,-429,141,-72
-28,-792,14812,-408,142,-59
-180,-852,15060,-415,139,-77
-192,-728,14960,-432,158,-74
-120,-732,14856,-427,163,-86
-140,-864,14748,-427,146,-73
-136,-804,14904,-431,171,-55
-96,-848,14716,-426,133,-70
-108,-820,14880,-420,168,-69
-176,-868,14800,-421,164,-69
-160,-764,14988,-425,132,-66
-76,-816,14852,-415,139,-78
-184,-772,14956,-443,156,-83
-164,-816,14784,-413,128,-90
-192,-876,14812,-429,173,-86
-160,-800,14784,-420,142,-83
-168,-804,14912,-423,153,-58
-144,-836,14932,-429,130,-58
-132,-840,14784,-433,168,-75
-92,-708,14812,-433,152,-62
-164,-804,14944,-430,163,-71
-120,-812,14836,-439,154,-79
-196,-856,14852,-446,161,-81
-96,-820,14940,-405,144,-62
-112,-828,14872,-422,149,-73
-248,-844,14824,-421,158,-71
-176,-676,14660,-423,146,-85
-120,-872,14992,-420,145,-65
-128,-752,14916,-424,133,-76
-220,-864,14880,-439,142,-98
-248,-824,14828,-414,158,-69
-140,-844,14868,-420,152,-86
-112,-792,14916,-432,145,-81
-160,-948,14812,-430,188,-89
-168,-772,14760,-416,121,-85
-128,-828,14876,-435,182,-80
-88,-800,14648,-439,171,-63
-176,-868,14688,-434,158,-72
-120,-872,14832,-421,149,-81
-164,-748,14992,-419,140,-82
-100,-824,14864,-419,118,-79
-176,-704,14904,-433,180,-90
-228,-860,14932,-438,152,-71
-100,-828,14956,-427,154,-61
-140,-776,14908,-411,145,-103
-152,-792,15024,-415,129,-70
-220,-760,14840,-430,167,-82
-228,-728,14972,-453,178,-84
-132,-732,14816,-440,137,-80
-84,-816,14856,-423,153,-76
-148,-780,14796,-400,145,-83
-120,-804,14856,-424,129,-71
-216,-844,14840,-425,119,-81
-160,-752,14772,-434,141,-98
-276,-840,14896,-438,152,-95
-240,-744,14860,-426,139,-115
-180,-884,14876,-424,149,-82
-200,-780,14844,-430,112,-86
-68,-768,14908,-447,126,-75
-108,-792,14836,-431,141,-67
-196,-816,14864,-420,146,-68
-148,-816,14760,-420,152,-74
-136,-812,14824,-422,165,-75
-132,-816,14852,-424,129,-70
-200,-876,14956,-405,174,-107
-296,-784,15016,-423,144,-92
-216,-728,14748,-424,120,-78
-164,-724,14844,-429,148,-84
-256,-812,14756,-428,149,-100
-172,-760,14756,-424,169,-65
-272,-780,14892,-430,153,-76
-168,-884,14836,-415,146,-80
-188,-776,14948,-419,140,-78
-212,-784,14892,-421,144,-101
-36,-640,14856,-424,135,-82
-168,-788,14776,-423,167,-91
-148,-768,14940,-429,177,-106
-228,-740,14932,-428,126,-83
-152,-836,14844,-430,143,-95
-108,-856,14940,-425,136,-89
-164,-844,14904,-425,126,-71
-176,-848,14848,-436,138,-75
-60,-784,14880,-424,118,-88
-188,-824,14880,-414,150,-60
-224,-800,14944,-426,146,-78
-188,-804,14820,-432,132,-70
-176,-856,14760,-441,156,-76
-156,-824,14868,-438,125,-84
-144,-828,14728,-420,140,-67
-92,-804,14956,-416,154,-73
-216,-916,14804,-433,141,-75
-208,-800,14860,-427,169,-92
-224,-792,14808,-436,135,-85
-112,-872,14892,-411,142,-109
-196,-776,14904,-423,156,-65
-168,-812,14784,-408,148,-59
-180,-720,14884,-435,140,-59
-184,-752,14856,-435,149,-73
-148,-816,14684,-427,132,-74
-112,-740,14820,-429,140,-87
-236,-864,14804,-425,123,-93
-264,-768,14820,-427,160,-76
-136,-792,14852,-435,136,-68
-188,-700,14932,-434,152,-86
-148,-800,14744,-426,166,-87
-120,-812,14824,-433,147,-88
-228,-812,14832,-446,157,-82
-140,-792,14848,-432,152,-81
-144,-836,14876,-419,144,-79
-204,-836,14872,-430,145,-93
-208,-820,15016,-430,167,-82
-52,-816,14900,-440,126,-75
-104,-816,14736,-423,143,-82
-88,-748,14784,-439,149,-94
-144,-748,14932,-430,128,-88
-140,-840,14728,-450,163,-102
-196,-824,14940,-427,144,-84
-200,-800,14876,-424,127,-70
-164,-872,14928,-424,158,-102
-168,-828,14888,-436,120,-89
-148,-800,14872,-430,137,-90
-48,-880,15024,-424,156,-91
-96,-800,14952,-437,142,-73
-236,-776,15068,-446,141,-97
-88,-884,15040,-431,139,-86
-168,-708,14796,-440,132,-88
-116,-780,14960,-426,134,-53
-192,-720,14900,-415,167,-81
-252,-784,14960,-416,145,-88
-152,-688,14896,-428,113,-76
-92,-776,15000,-421,170,-41
-152,-780,14852,-426,150,-101
-112,-828,14788,-432,147,-76
-208,-816,14880,-416,139,-55
-108,-844,14664,-420,151,-80
-124,-828,14844,-428,159,-84
-192,-944,14804,-432,156,-60
-108,-824,14940,-424,156,-88
-104,-880,14852,-424,129,-88
-164,-732,14880,-433,168,-76
-136,-812,14956,-435,142,-100
-84,-788,14908,-423,130,-92
-104,-736,14848,-424,147,-84
-52,-832,15012,-422,156,-85
-240,-960,15024,-426,148,-69
-92,-720,14840,-430,131,-62
-224,-820,14764,-414,152,-97
-148,-808,14808,-435,172,-79
-140,-836,14868,-425,179,-87
-252,-884,14860,-429,151,-101
-96,-836,14956,-433,141,-77
-200,-892,14900,-432,166,-56
-116,-824,14928,-413,138,-82
-164,-836,14764,-416,154,-52
-144,-804,14860,-422,153,-84
-184,-848,15016,-426,179,-92
-272,-828,14944,-427,148,-71
-220,-788,14888,-426,146,-102
-216,-892,14816,-431,152,-58
-136,-840,14708,-431,126,-85
-136,-948,14932,-439,146,-96
-184,-852,14852,-429,134,-80
-236,-780,14836,-413,170,-92
-188,-856,14800,-414,136,-76
-20,-768,14888,-432,154,-88
-212,-776,14992,-434,151,-66
-148,-780,14832,-428,157,-55
-188,-760,14936,-432,159,-60
-156,-876,14940,-422,129,-54
-180,-808,14744,-429,140,-80
-72,-900,14716,-426,175,-66
-212,-856,14872,-428,175,-80
-132,-788,14840,-420,157,-91
-124,-772,14876,-433,151,-98
-192,-768,14840,-405,128,-67
-136,-708,14884,-428,156,-91
-184,-852,14788,-441,134,-93
-80,-868,14880,-422,137,-89
-220,-808,14928,-441,151,-96
-164,-756,14952,-431,159,-71
-124,-744,14916,-444,142,-72
-136,-820,14852,-422,163,-104
-188,-868,14824,-420,133,-95
-160,-776,14920,-450,160,-60
-116,-800,14884,-422,180,-78
-212,-788,14872,-440,129,-82
-288,-868,14948,-419,165,-88
-160,-828,14700,-423,157,-69
-172,-816,14928,-440,139,-71
-168,-812,14724,-421,136,-89
-132,-836,14860,-434,179,-81
-148,-824,14764,-411,146,-70
-188,-768,14792,-421,125,-74
-188,-728,14876,-429,115,-67
-228,-892,15012,-415,136,-91
-80,-812,14940,-423,154,-74
-176,-836,14888,-441,118,-79
-108,-812,14972,-421,172,-53
-60,-816,14872,-431,158,-84
-148,-732,14800,-421,163,-77
-172,-728,14984,-423,120,-70
-228,-768,14940,-431,128,-55
-180,-824,14848,-425,160,-99
-164,-940,14776,-443,133,-63
-132,-820,14888,-442,157,-48
-180,-800,14824,-415,145,-59
-108,-744,14800,-432,138,-94
-152,-756,14920,-419,135,-91
-140,-876,14856,-424,136,-86
-208,-752,14844,-405,156,-68
-188,-804,14864,-427,152,-72
-92,-812,14876,-419,133,-78
-164,-768,14684,-438,145,-78
-112,-824,14980,-418,137,-75
-180,-936,14864,-435,145,-93
-96,-780,14880,-422,118,-84
-124,-816,14812,-435,168,-82
-208,-792,14748,-441,164,-88
-132,-792,14796,-428,146,-96
-132,-876,14948,-424,148,-71
-88,-804,14856,-420,159,-79
-160,-868,14652,-443,166,-83
-252,-792,14932,-436,141,-79
-204,-776,14824,-419,142,-83
-164,-756,15004,-434,142,-71
-92,-840,14808,-439,162,-67
-60,-800,14744,-429,170,-97
-204,-752,14700,-427,133,-93
-136,-780,14816,-440,136,-109
-156,-840,14840,-433,134,-91
-172,-740,14844,-426,153,-68
-148,-824,14868,-435,133,-97
-204,-828,14816,-414,154,-73
-204,-800,14744,-417,160,-93
-292,-800,14760,-411,172,-62
-140,-768,14920,-425,167,-71
-204,-792,14908,-426,157,-67
-220,-792,14820,-438,153,-78
-152,-760,14872,-420,105,-94
-192,-780,14880,-409,166,-56
-204,-796,14728,-440,142,-69
-140,-784,14868,-423,155,-98
-220,-748,14992,-429,157,-62
-112,-772,14888,-420,142,-91
-200,-772,14820,-426,167,-76
-220,-884,14892,-420,133,-92
-168,-732,14920,-425,169,-85
-220,-768,14700,-441,181,-95
-188,-816,14756,-425,159,-81
-196,-820,14836,-416,159,-73
-120,-732,14752,-426,148,-94
-132,-768,14928,-439,146,-74
-48,-912,14832,-442,141,-96
-276,-756,14724,-436,168,-65
-168,-728,15016,-437,157,-70
-248,-764,14876,-443,143,-68
-168,-800,14884,-437,149,-103
-240,-748,14916,-419,137,-97
-60,-792,14912,-438,134,-72
-164,-832,14800,-440,144,-65
-216,-780,14916,-427,186,-96
-168,-812,14800,-418,153,-82
-168,-764,14748,-418,154,-67
-176,-840,14924,-422,151,-81
-192,-792,14836,-434,150,-85
-180,-828,14840,-426,146,-77
-160,-736,14880,-430,153,-97
-268,-848,14840,-417,152,-69
-196,-816,14828,-418,143,-65
-72,-796,14924,-441,157,-85
-164,-740,14920,-434,136,-65
-96,-844,14852,-434,144,-73
-88,-776,14780,-419,151,-76
-228,-868,14880,-433,108,-77
-224,-832,14940,-429,160,-88
-124,-776,14796,-416,149,-81
-164,-816,14904,-426,160,-92
-176,-752,14820,-422,158,-87
-232,-888,14896,-434,150,-92
-176,-800,14916,-435,131,-78
-32,-748,14800,-429,169,-78
-136,-760,14844,-444,146,-97
-180,-820,14916,-438,150,-53
-96,-728,14900,-439,168,-74
-68,-840,14912,-440,135,-90
-168,-788,14800,-425,139,-71
-144,-712,14812,-442,146,-77
-124,-708,14872,-421,161,-82
-112,-812,14784,-426,158,-83
-288,-816,14868,-412,156,-64
-152,-772,14812,-453,138,-53
-68,-836,14888,-420,146,-96
-192,-852,14896,-437,159,-67
-180,-824,14784,-431,140,-86
-124,-788,14944,-424,139,-62
-108,-840,14908,-446,127,-89
-92,-836,14972,-418,158,-91
-176,-820,15040,-433,151,-92
-264,-732,14860,-421,134,-85
-220,-868,14904,-422,170,-97
-212,-768,14856,-438,153,-76
-128,-800,14828,-434,168,-83
-164,-876,14848,-419,157,-100
-224,-768,14988,-430,118,-67
-180,-800,14788,-431,150,-87
-184,-852,14828,-439,156,-80
-144,-868,14984,-437,162,-100
-244,-844,14856,-426,142,-68
-228,-836,14788,-422,151,-105
-176,-704,14872,-431,155,-87
-92,-816,14904,-425,155,-84
-164,-824,14816,-426,171,-76
-164,-856,14796,-443,141,-83
-168,-808,15012,-436,142,-78
-176,-804,14792,-407,142,-82
-172,-780,14896,-416,140,-73
-136,-756,14808,-422,164,-92
-228,-840,14840,-443,171,-90
-176,-884,14924,-427,144,-82
-200,-856,14844,-431,144,-74
-188,-840,14832,-418,146,-96
-128,-720,14916,-419,156,-85
-136,-732,14824,-439,132,-105
-164,-792,14888,-419,174,-83
-176,-816,14940,-420,133,-79
-56,-868,14760,-438,165,-81
-152,-824,14988,-450,152,-97
-140,-776,14880,-418,161,-69
-160,-780,14876,-427,128,-69
-232,-812,14856,-427,161,-85
-208,-864,14772,-433,141,-92
-284,-828,14784,-420,134,-73
-268,-772,14812,-432,155,-65
-112,-828,14984,-437,131,-90
-164,-788,14792,-427,143,-82
-112,-792,14824,-427,153,-79
-132,-880,14796,-445,153,-65
-128,-740,14852,-420,131,-97
-156,-796,14868,-421,100,-68
-168,-832,14768,-417,158,-77
-160,-800,14864,-428,128,-92
-260,-832,14952,-429,157,-98
-176,-720,14736,-441,147,-70
-104,-856,14888,-432,145,-73
-80,-804,14844,-427,154,-80
-268,-836,14816,-442,142,-89
-108,-880,15044,-427,148,-73
-208,-780,14888,-445,133,-78
-184,-840,14912,-415,148,-80
-304,-788,14932,-417,141,-79
-164,-800,14972,-443,134,-74
-188,-852,14872,-425,142,-57
-180,-876,14916,-416,125,-59
-248,-796,14908,-451,173,-76
-160,-812,14836,-430,148,-83
-104,-756,14728,-432,140,-86
-172,-792,14872,-430,150,-75
-212,-796,14724,-431,124,-91
-160,-828,14876,-416,144,-79
-144,-836,14856,-426,159,-98
-176,-836,15016,-438,122,-69
-188,-776,14916,-416,163,-104
-96,-756,14880,-437,149,-92
-164,-832,14744,-430,121,-75
-96,-808,14840,-438,133,-77
-156,-856,14784,-429,131,-73
-132,-776,14776,-410,148,-83
-120,-860,14884,-417,149,-62
-136,-804,14784,-441,140,-89
-164,-728,14880,-425,165,-75
-160,-804,14924,-428,168,-92
-176,-828,14792,-443,134,-62
-148,-780,14848,-433,155,-76
-220,-800,14852,-437,139,-70
-120,-748,14940,-408,125,-71
-112,-776,14888,-425,126,-94
-108,-724,14840,-427,167,-86
-168,-804,14800,-444,149,-59
-76,-820,14888,-441,168,-103
-112,-956,14836,-435,167,-66
-240,-808,14844,-418,144,-88
-220,-824,14940,-432,144,-81
-212,-768,14868,-437,132,-74
-84,-768,14664,-428,124,-64
-256,-808,14908,-420,129,-92
-188,-868,14932,-432,161,-78
-188,-812,14836,-415,133,-62
-12,-744,14828,-434,156,-98
-164,-872,14892,-433,123,-81
-116,-776,14696,-421,127,-90
-156,-932,14996,-428,134,-78
-196,-840,14872,-414,159,-77
-64,-772,14824,-420,192,-91
-240,-824,14852,-425,159,-88
-140,-788,14872,-426,147,-100
-272,-812,14944,-426,162,-119
-212,-856,14900,-436,146,-53
-176,-840,14976,-424,151,-79
-44,-780,14848,-414,181,-82
-132,-752,14872,-435,130,-86
-100,-860,14896,-437,147,-98
-180,-744,14992,-430,153,-73
-176,-836,14984,-434,138,-61
-100,-836,14816,-420,170,-87
-108,-864,14840,-424,169,-57
-56,-780,14836,-424,141,-87
-200,-768,14984,-414,163,-76
-164,-860,14844,-424,143,-75
-144,-812,14960,-430,156,-95
-108,-728,14976,-419,145,-78
-136,-884,14808,-424,139,-85
-164,-780,14904,-437,153,-74
-164,-816,14816,-434,156,-76
-104,-788,14832,-432,137,-85
-180,-744,14852,-431,133,-78
-208,-824,14896,-433,119,-88
-240,-824,14880,-417,160,-82
-172,-804,14880,-408,141,-93
-100,-788,14868,-416,144,-60
-212,-780,14788,-404,150,-76
-140,-856,14796,-428,166,-62
-72,-788,14748,-434,165,-95
-184,-848,14760,-424,149,-91
-132,-816,14872,-417,157,-82
-84,-812,14760,-437,130,-81
-144,-940,14896,-423,152,-87
-116,-820,14800,-428,153,-82
-184,-792,14964,-425,169,-85
-220,-808,14868,-429,154,-100
-128,-848,14956,-421,164,-76
-148,-772,14960,-420,143,-93
-116,-748,14936,-418,143,-68
-60,-828,14960,-442,160,-95
-260,-784,14764,-432,134,-56
-124,-860,14788,-424,135,-86
-152,-764,14876,-423,144,-67
-108,-884,14848,-434,165,-92
-184,-788,14764,-431,144,-113
-88,-824,14864,-427,147,-88
-88,-872,14904,-430,130,-80
-144,-852,14936,-431,158,-91
-100,-816,14808,-422,152,-87
-132,-800,14888,-431,126,-83
-228,-904,15008,-407,152,-66
-196,-720,14928,-426,158,-58
-196,-804,14980,-433,155,-88
-188,-800,14848,-424,147,-106
-252,-784,14896,-431,103,-80
-88,-868,14872,-434,178,-79
-144,-892,14852,-436,127,-67
-88,-852,14892,-425,146,-78
-188,-860,14728,-425,160,-89
-108,-800,14788,-428,160,-83
-84,-772,14680,-403,164,-73
-172,-788,14772,-420,142,-74
-200,-788,14888,-415,141,-82
-176,-852,14832,-419,143,-66
-72,-780,14884,-424,145,-82
-152,-832,14876,-438,132,-86
-152,-820,14984,-421,153,-81
-160,-808,14896,-438,142,-81
-176,-816,14836,-428,132,-65
-100,-856,14804,-418,165,-77
-144,-860,14740,-419,179,-112
-100,-800,14868,-426,143,-77
-144,-816,14772,-423,148,-82
-128,-848,14852,-409,149,-78
-156,-944,14704,-418,158,-91
-192,-740,14780,-453,159,-64
-160,-860,14884,-428,141,-69
-248,-748,14896,-435,141,-73
-80,-816,14872,-398,160,-78
-164,-768,14860,-427,166,-74
-72,-852,14852,-431,176,-85
-152,-832,14972,-440,134,-59
-168,-832,14956,-415,130,-97
-140,-712,14864,-426,156,-81
-160,-844,14944,-434,151,-69
-132,-820,14888,-423,145,-79
-140,-876,14860,-443,147,-94
-288,-800,14792,-424,147,-67
-176,-768,14856,-417,168,-58
-212,-844,14916,-442,119,-77
-308,-816,14828,-430,145,-71
-232,-812,14808,-423,162,-76
-120,-804,14876,-426,164,-79
-68,-788,14828,-422,164,-97
-192,-760,14968,-425,145,-66
-100,-776,14860,-429,150,-72
-244,-848,14892,-447,135,-78
-60,-856,14856,-430,122,-56
-180,-772,14788,-433,146,-101
-236,-824,14852,-429,151,-84
-212,-876,14896,-425,160,-68
-192,-784,14836,-436,132,-103
-148,-812,14800,-421,137,-74
-172,-852,14884,-425,131,-75
-220,-812,14840,-409,173,-92
-80,-768,14924,-428,144,-79
-128,-796,14908,-424,121,-106
-164,-704,14960,-439,141,-89
-144,-752,14904,-423,131,-91
-188,-800,14804,-416,120,-88
-84,-856,14868,-450,170,-68
-176,-820,14780,-422,151,-73
-140,-892,14772,-442,137,-66
-228,-824,14896,-413,139,-59
-240,-780,14956,-425,156,-65
-128,-788,14892,-432,145,-74
-168,-760,14908,-442,139,-73
-148,-828,14792,-422,144,-70
-128,-840,14924,-425,153,-104
-156,-724,14860,-427,129,-80
-236,-856,14884,-411,125,-87
-168,-816,14684,-432,141,-83
-180,-812,14944,-430,144,-71
-204,-864,14848,-428,163,-88
-124,-784,14892,-427,147,-99
-228,-848,14784,-421,145,-89
-160,-752,14832,-427,142,-82
-164,-880,15032,-428,150,-81
-96,-904,14888,-424,154,-67
-48,-800,14860,-424,155,-62
-136,-824,14968,-437,152,-82
-256,-720,14840,-421,155,-79
-196,-748,14892,-421,133,-78
-188,-848,14972,-439,171,-77
-260,-804,14764,-438,132,-66
-176,-716,14904,-423,129,-80
-88,-896,14912,-423,131,-77
-156,-860,14956,-441,145,-80
-60,-768,14900,-420,153,-70
-240,-800,14840,-435,150,-93
-164,-788,14908,-441,147,-94
-40,-836,14892,-422,151,-74
-104,-828,14804,-430,138,-97
-80,-792,14932,-421,135,-85
-188,-816,14820,-426,147,-86
-100,-788,14932,-434,159,-87
-208,-768,14796,-431,133,-58
-144,-752,14796,-424,151,-83
-136,-812,14804,-417,139,-65
-300,-804,14808,-404,130,-84
-148,-784,14868,-436,156,-79
-76,-872,14820,-412,156,-68
-200,-676,14780,-426,152,-89
-208,-760,14988,-425,134,-70
-40,-824,14924,-423,156,-94
-200,-776,14976,-410,156,-85
-244,-800,14876,-431,125,-88
-144,-804,14944,-440,135,-97
-124,-768,14752,-432,159,-59
-188,-868,14808,-431,148,-79
-180,-864,14904,-438,136,-99
-192,-760,14924,-430,144,-82
-216,-892,14888,-419,155,-86
-152,-812,14780,-430,156,-82
-232,-888,14928,-422,137,-87
-136,-832,14844,-438,155,-74
-156,-748,14872,-435,128,-95
-180,-816,14908,-429,117,-75
-140,-736,14884,-428,138,-95
-232,-784,14868,-429,144,-76
-188,-840,14884,-422,163,-102
-204,-748,14836,-434,150,-80
-120,-848,14824,-420,150,-96
-152,-800,14960,-440,149,-73
-200,-800,14816,-432,154,-82
-156,-816,14788,-422,145,-79
-132,-780,14800,-423,150,-75
-124,-816,14860,-415,118,-82
-176,-784,14900,-429,131,-86
-60,-764,14860,-413,155,-69
-188,-816,14864,-423,158,-79
-188,-700,14996,-425,137,-89
-224,-764,14776,-444,135,-83
-196,-828,14964,-414,131,-99
-236,-764,14772,-447,157,-85
-216,-800,14800,-439,148,-92
-204,-796,14900,-419,160,-74
-228,-784,14840,-417,160,-99
-136,-836,14936,-420,157,-88
-104,-796,14836,-431,144,-89
-188,-788,14892,-413,143,-83
-152,-820,14812,-439,156,-44
-204,-744,14980,-432,144,-81
-104,-720,14808,-411,122,-74
-124,-792,14888,-423,166,-74
-272,-808,14780,-419,140,-92
-244,-788,14740,-438,135,-95
-196,-752,14804,-414,145,-72
-188,-820,14836,-436,146,-111
-208,-700,14844,-439,141,-72
-140,-812,14944,-434,141,-80
-272,-808,14672,-421,140,-91
-148,-788,15008,-434,176,-88
-196,-844,15028,-445,172,-85
-184,-744,14796,-424,151,-63
-152,-760,14952,-432,152,-81
-192,-776,14848,-440,129,-54
-204,-832,14880,-443,143,-53
-152,-792,14864,-430,168,-78
-108,-844,14912,-439,148,-87
-164,-740,14856,-422,116,-73
-108,-728,14800,-426,169,-111
-100,-776,14856,-414,131,-82
-208,-768,14752,-428,125,-65
-88,-820,14852,-441,139,-90
-176,-828,14932,-437,134,-95
-124,-764,14820,-442,124,-74
-144,-804,14840,-414,149,-57
-276,-804,14888,-442,137,-58
-192,-900,14836,-417,168,-78
-88,-768,14836,-422,167,-55
-248,-840,14960,-422,160,-87
-204,-688,14704,-429,172,-70
-104,-804,14800,-423,124,-64
-116,-788,14872,-440,175,-74
-220,-744,14960,-421,147,-72
-260,-804,14868,-423,151,-95
-124,-804,14840,-422,151,-91
-204,-840,14860,-418,157,-89
-168,-768,14888,-430,141,-86
-216,-812,14848,-436,124,-90
-244,-796,15008,-418,185,-95
-136,-892,14676,-408,151,-106
-164,-864,14860,-447,145,-99
-100,-764,14784,-441,153,-96
-104,-808,14944,-420,139,-87
-272,-812,14700,-403,140,-80
-108,-692,14744,-435,158,-88
-144,-840,14876,-429,153,-81
-88,-800,14964,-420,127,-68
-240,-828,14860,-436,155,-96
-196,-804,14972,-425,147,-95
-88,-880,14936,-426,155,-75
-140,-824,14860,-432,149,-85
-228,-848,14952,-432,145,-78
-196,-816,14984,-414,131,-83
-192,-784,14788,-407,158,-95
-180,-796,14872,-426,135,-72
-284,-820,14744,-433,132,-75
-108,-844,14960,-412,166,-78
-196,-772,14848,-437,157,-59
-196,-832,14888,-436,155,-78
-200,-840,14820,-433,159,-84
-100,-748,14860,-440,148,-64
-168,-816,15012,-430,153,-74
-216,-736,14888,-416,155,-93
-208,-752,14936,-426,145,-99
-104,-756,14912,-428,152,-79
-156,-832,14932,-423,164,-61
-176,-824,14880,-424,152,-100
-180,-796,14796,-433,125,-100
-220,-728,14900,-433,144,-100
-188,-840,14824,-429,155,-93
-184,-820,14888,-421,126,-88
-224,-820,14884,-423,163,-90
-180,-884,14764,-409,166,-72
-224,-740,14960,-434,171,-79
-228,-832,14728,-426,160,-94
-128,-744,14876,-423,145,-96
-120,-832,14928,-416,167,-81
-196,-860,14868,-445,125,-84
-216,-844,14992,-421,142,-103
-148,-820,14904,-433,146,-77
-72,-776,14804,-423,155,-81
-148,-920,14876,-432,155,-97
-200,-864,14896,-429,129,-84
-108,-912,14800,-424,153,-84
-100,-712,14960,-427,168,-94
-84,-924,14956,-422,142,-78
-124,-880,14708,-416,146,-67
-160,-788,14816,-442,149,-89
-100,-728,14816,-436,154,-64
-72,-864,14916,-431,126,-57
-192,-792,14836,-434,153,-85
-108,-832,14800,-421,145,-79
-92,-896,14864,-435,152,-88
-152,-768,14820,-418,144,-72
-180,-836,14720,-427,138,-73
-164,-832,14752,-431,157,-81
-164,-800,14820,-445,138,-96
-128,-752,14848,-433,131,-72
-220,-776,14760,-418,148,-78
-136,-724,14772,-430,152,-81
-92,-820,14908,-411,132,-98
-220,-892,14780,-429,157,-82
-144,-828,14888,-415,155,-73
-220,-868,14816,-431,160,-96
-212,-728,14904,-407,151,-53
-100,-780,14880,-425,151,-93
-192,-800,14904,-416,124,-76
-216,-724,14764,-420,135,-70
-112,-756,14928,-416,150,-87
-184,-776,14960,-432,136,-68
-68,-776,14900,-434,130,-84
-176,-796,14816,-423,140,-84
-148,-912,14856,-419,176,-61
-80,-844,14920,-428,147,-55
-184,-728,14948,-433,140,-96
-212,-780,14964,-449,151,-83
-160,-784,14904,-424,157,-77
-112,-740,14968,-429,130,-84
-160,-820,14948,-425,108,-84
-92,-788,14740,-421,165,-73
-112,-776,14836,-435,137,-69
-216,-824,15068,-431,141,-80
-156,-792,14768,-427,141,-72
-172,-788,14824,-435,165,-89
-44,-836,14748,-437,172,-72
-172,-712,14844,-444,131,-60
-112,-780,14836,-427,142,-82
-88,-772,14740,-430,159,-87
-100,-884,14796,-445,159,-94
-176,-840,14692,-416,159,-82
-92,-792,14824,-422,158,-92
-128,-676,14800,-429,140,-58
-180,-812,15016,-423,126,-83
-164,-832,14856,-418,140,-82
-212,-864,14728,-425,155,-77
-136,-816,15032,-436,132,-80
-144,-796,14768,-425,150,-87
-188,-808,14864,-415,133,-80
-176,-816,14964,-425,146,-87
-248,-892,14808,-410,134,-74
-212,-824,14884,-439,160,-81
-160,-756,14840,-421,136,-73
-232,-848,14932,-426,142,-78
-252,-852,14988,-418,151,-76
-232,-776,14948,-427,160,-57
-236,-824,14988,-423,154,-71
-164,-712,14824,-408,151,-80
-240,-864,14788,-436,137,-73
-156,-840,14880,-426,150,-90
-100,-744,14876,-416,152,-87
-152,-756,14732,-414,147,-64
-212,-724,14656,-427,150,-91
-24,-800,14724,-443,164,-94
-184,-796,14972,-430,157,-69
-252,-796,14704,-420,162,-71
-72,-828,14856,-414,136,-95
-172,-752,14716,-445,127,-69
-284,-812,14808,-430,153,-96
-220,-816,14808,-411,156,-75
-132,-820,14792,-419,156,-56
-268,-836,14924,-414,163,-91
-152,-864,14912,-436,158,-87
-164,-856,14804,-438,134,-68
-200,-896,14876,-426,131,-61
-164,-800,14796,-428,139,-86
-152,-792,14892,-439,143,-100
-188,-776,14716,-422,145,-82
-204,-792,14928,-405,150,-76
-200,-792,15000,-418,140,-90
-160,-776,14800,-435,149,-87
-156,-828,14708,-425,153,-91
-120,-832,14812,-437,138,-71
-104,-768,14856,-425,167,-109
-224,-828,14888,-423,133,-94
-92,-868,14816,-425,130,-76
-132,-848,14920,-418,149,-78
-200,-848,14900,-422,138,-74
-124,-808,14984,-415,154,-79
-196,-796,14808,-434,163,-83
-52,-840,14920,-427,155,-71
-116,-792,14824,-422,147,-79
-88,-900,14872,-415,130,-72
-244,-780,14644,-422,125,-86
-100,-752,14832,-428,158,-89
-108,-716,14880,-410,148,-67
-244,-836,14972,-430,178,-68
-136,-820,14748,-432,113,-89
-180,-772,14888,-410,147,-82
-100,-808,14952,-430,148,-76
-232,-804,14740,-416,145,-78
-208,-856,14900,-412,141,-91
-164,-764,14868,-427,146,-78
-188,-752,14960,-449,155,-96
-40,-648,14852,-434,186,-77
-256,-768,14888,-424,136,-77
-196,-784,14816,-445,148,-97
-208,-800,14816,-413,144,-80
-176,-892,14800,-419,135,-70
-256,-840,15052,-447,138,-80
-168,-792,14848,-425,122,-80
-156,-804,14812,-431,146,-72
-232,-764,14868,-440,129,-70
-168,-848,14980,-416,135,-92
-292,-756,14852,-420,141,-105
-176,-800,14852,-416,152,-79
-188,-788,14904,-411,139,-119
-100,-840,14892,-436,148,-76
-200,-736,14924,-428,149,-61
-160,-784,14892,-435,151,-57
-88,-804,14744,-440,172,-82
-216,-876,14976,-422,155,-90
-172,-872,14716,-417,153,-86
-76,-864,14884,-424,146,-69
-196,-788,14808,-431,174,-84
-160,-776,14864,-429,135,-62
-144,-724,14888,-399,151,-84
-164,-884,14856,-414,145,-81
-88,-836,15004,-431,159,-60
-204,-828,14812,-440,139,-78
-92,-812,14916,-432,133,-83
-104,-732,14776,-441,152,-70
-124,-768,14948,-405,148,-62
-168,-732,14784,-424,177,-87
-188,-808,14960,-439,159,-91
-160,-812,14928,-437,151,-66
-132,-760,14968,-431,129,-92
-176,-840,14960,-422,153,-86
-176,-752,14876,-425,157,-59
-112,-824,14892,-439,137,-57
-136,-772,14896,-436,174,-81
-128,-784,14856,-433,130,-76
-160,-744,14836,-426,163,-78
-152,-804,14772,-422,135,-81
-184,-764,14816,-421,138,-106
-220,-776,14768,-450,165,-80
-132,-896,14824,-413,165,-92
-76,-704,14732,-424,116,-57
-164,-864,14880,-417,139,-67
-192,-820,14732,-441,160,-61
-140,-844,15024,-417,167,-62
-144,-820,14864,-417,145,-68
-268,-744,14852,-446,155,-115
-188,-740,14760,-419,162,-94
-136,-804,14944,-410,145,-75
-196,-780,14896,-426,118,-83
-152,-804,14820,-423,144,-89
-184,-832,14868,-424,117,-79
-164,-888,14808,-429,143,-50
-76,-856,14764,-427,144,-63
-148,-788,14860,-426,145,-99
-184,-744,14840,-429,174,-64
-112,-768,14892,-435,161,-95
-248,-800,14836,-421,167,-69
-204,-760,14888,-424,134,-118
-116,-712,14940,-406,122,-106
-240,-804,14816,-426,148,-83
-152,-756,14824,-424,170,-59
-204,-896,14780,-443,164,-81
-112,-888,14912,-433,160,-82
-96,-876,14896,-424,136,-68
-144,-892,14680,-442,157,-85
-96,-776,14900,-415,167,-69
-144,-840,14740,-426,121,-89
-152,-856,14876,-443,169,-52
-272,-712,14784,-434,179,-67
-224,-744,14924,-428,133,-90
-188,-752,14840,-429,129,-91
-220,-764,14868,-422,146,-85
-192,-780,14748,-419,133,-72
-88,-812,14632,-421,139,-76
-132,-836,14880,-431,148,-69
-156,-884,14860,-423,155,-69
-112,-792,14948,-440,142,-106
-172,-848,14868,-423,143,-78
-132,-740,14944,-412,146,-70
-232,-792,14868,-410,167,-70
-188,-752,14832,-418,157,-66
-240,-700,14804,-426,161,-88
-272,-764,14768,-423,158,-76
-156,-840,15032,-438,176,-95
-212,-768,14692,-425,152,-75
-208,-812,14952,-430,152,-68
-144,-900,14860,-443,155,-83
-88,-952,14796,-415,173,-51
-204,-756,14952,-421,142,-96
-152,-768,14812,-433,151,-63
-124,-756,14928,-417,153,-82
-208,-772,14860,-442,143,-75
-164,-804,14860,-429,134,-88
-228,-824,14784,-434,130,-74
-164,-812,14656,-436,119,-86
-116,-764,14764,-439,131,-87
-88,-940,14744,-440,138,-75
-132,-908,14852,-434,150,-101
-232,-848,14940,-430,136,-84
-80,-856,14760,-430,152,-103
-248,-752,14808,-407,150,-86
-112,-768,14728,-412,166,-64
-172,-764,14760,-417,166,-106
-184,-728,14896,-425,178,-120
-200,-812,14756,-441,126,-76
-184,-768,14736,-446,135,-82
-132,-836,14920,-429,158,-89
-96,-768,14828,-428,147,-77
-104,-904,14952,-436,161,-57
-112,-888,15024,-420,141,-82
-224,-820,14904,-410,150,-72
-88,-804,14716,-438,144,-108
-144,-740,15008,-431,161,-83
-172,-752,14776,-413,148,-93
-244,-700,14832,-425,131,-82
-212,-760,14948,-423,139,-93
-116,-800,14808,-432,147,-79
-220,-848,14796,-422,156,-90
-124,-756,14912,-450,128,-82
-88,-792,14720,-442,147,-67
-152,-864,14784,-433,148,-67
-132,-832,14852,-424,140,-102
-184,-848,14952,-432,142,-85
-184,-772,14872,-414,145,-85
-112,-796,14836,-423,167,-95
-164,-792,14984,-399,158,-92
-276,-680,14816,-425,148,-85
-128,-880,14820,-425,154,-79
-104,-868,14828,-434,154,-90
-172,-760,14824,-419,149,-84
-168,-872,14920,-445,157,-64
-116,-868,15052,-432,148,-96
-116,-904,14916,-429,149,-104
-80,-872,14852,-419,145,-59
-148,-832,14768,-426,152,-87
-164,-796,15056,-412,149,-69
-184,-776,14864,-420,143,-67
-192,-804,14788,-431,167,-67
-200,-856,14964,-414,142,-94
-256,-788,14824,-440,158,-65
-232,-780,14736,-434,129,-83
-48,-748,14844,-433,138,-98
-172,-868,14888,-426,185,-80
-180,-844,14764,-437,166,-93
-200,-816,14760,-425,142,-72
-172,-840,14928,-426,163,-100
-184,-708,15052,-421,155,-82
-280,-884,14900,-426,155,-90
-176,-716,14828,-420,162,-70
-248,-744,14844,-427,144,-77
-192,-776,14944,-425,150,-87
-156,-816,15060,-441,138,-80
-132,-800,14820,-441,168,-76
-132,-748,14968,-427,165,-60
-56,-824,14832,-442,147,-62
-180,-864,14748,-420,139,-56
-100,-836,14828,-402,161,-82
-140,-880,14900,-434,142,-82
-160,-812,14740,-421,156,-89
-152,-820,14816,-418,128,-75
-136,-764,14828,-441,140,-85
-200,-696,14792,-428,163,-64
-208,-808,14896,-437,137,-112
-204,-908,14792,-428,163,-103
-56,-732,14828,-445,157,-105
-108,-832,14776,-447,139,-87
-92,-772,14740,-439,161,-89
-48,-696,14960,-430,149,-76
-132,-836,14812,-414,170,-72
-144,-740,14816,-418,161,-79
-252,-764,14808,-427,125,-86
-268,-768,14888,-435,132,-73
-164,-800,15024,-420,144,-87
-184,-804,14900,-415,149,-84
-228,-872,14992,-412,147,-95
-192,-732,14776,-448,127,-70
-224,-828,14824,-422,145,-61
-132,-840,14928,-408,181,-67
-148,-816,14936,-409,114,-81
-112,-736,14996,-407,143,-80
-140,-816,15096,-419,144,-71
-200,-752,14800,-424,141,-82
-236,-800,14824,-427,162,-93
-232,-744,14992,-426,135,-90
-88,-756,14832,-437,131,-84
-208,-832,14868,-433,132,-95
-184,-856,14888,-428,139,-69
-128,-848,14908,-425,162,-100
-88,-900,14796,-441,170,-79
-200,-920,14936,-431,156,-73
-92,-772,14908,-408,138,-76
-140,-836,14960,-424,156,-64
-284,-856,14900,-438,162,-47
-100,-752,14872,-433,150,-94
-172,-820,14836,-420,160,-76
-176,-800,15028,-418,152,-50
-144,-924,14808,-430,153,-81
-156,-776,14712,-437,132,-79
-156,-740,14904,-433,115,-74
-204,-776,14808,-442,135,-83
-4,-784,14972,-431,151,-65
-100,-828,14832,-438,132,-90
-144,-772,15008,-428,133,-78
-88,-792,14904,-424,128,-57
-240,-868,14812,-428,133,-90
-264,-820,14752,-422,144,-64
-328,-888,14888,-417,169,-70
-212,-836,14964,-436,150,-83
-260,-840,14712,-429,156,-76
-136,-732,14712,-425,141,-63
-80,-768,14900,-438,145,-66
-100,-792,15004,-427,145,-71
-108,-812,14796,-419,156,-77
-136,-804,14808,-443,117,-69
-192,-844,14900,-432,169,-62
-152,-892,14816,-414,146,-72
-92,-828,14872,-435,146,-85
-260,-812,14840,-419,139,-73
-168,-908,14768,-427,146,-72
-296,-748,15036,-448,149,-72
-108,-776,14832,-440,139,-83
-172,-808,14992,-435,146,-87
-68,-772,14832,-441,164,-55
-148,-756,14812,-427,139,-73
-152,-784,14840,-419,141,-74
-208,-856,14788,-432,171,-77
-148,-804,14828,-415,146,-90
-248,-820,14700,-443,143,-94
-208,-800,14928,-447,144,-72
-348,-668,14844,-429,149,-78
-240,-752,14904,-441,163,-87
-216,-780,14876,-418,140,-56
-152,-684,14844,-451,143,-87
-156,-688,14752,-418,161,-64
-132,-772,14724,-426,151,-72
-68,-844,14884,-408,163,-74
-204,-812,14908,-439,149,-71
-208,-804,14968,-439,172,-77
-80,-912,14804,-431,130,-61
-200,-792,14948,-421,148,-81
-152,-752,14760,-400,160,-77
-256,-864,14848,-431,154,-104
-164,-844,14944,-438,110,-73
-128,-812,14824,-432,171,-102
-144,-780,14832,-426,143,-76
-172,-804,14916,-417,120,-86
-148,-792,14960,-420,166,-77
-116,-732,14764,-440,132,-68
-152,-768,14844,-429,171,-67
-180,-752,14924,-425,141,-74
-184,-808,14820,-429,115,-80
-204,-800,14872,-428,134,-82
-152,-840,14920,-427,137,-85
-136,-824,14852,-449,100,-72
44,-824,14916,-437,160,-78
-160,-760,14848,-442,142,-70
-128,-708,14928,-419,142,-76
-88,-800,15060,-429,127,-106
-200,-724,14776,-423,178,-89
-164,-784,14916,-429,146,-91
-184,-776,15020,-424,148,-76
-224,-724,14956,-420,174,-90
-176,-800,14736,-428,136,-74
-144,-804,14924,-436,154,-82
-116,-804,14704,-426,156,-74
-128,-840,14928,-425,145,-74
-208,-684,14824,-436,164,-105
-172,-812,14952,-433,133,-81
-160,-828,14792,-445,154,-85
-108,-840,14984,-435,157,-75
-144,-792,14864,-416,165,-76
-156,-824,14820,-422,129,-83
-172,-888,14896,-423,140,-71
-204,-804,14824,-428,164,-85
-136,-784,14808,-426,117,-93
-68,-740,14912,-422,137,-101
-180,-756,14848,-433,131,-91
-192,-728,14776,-436,156,-62
-220,-780,14968,-435,127,-78
-112,-780,14864,-423,133,-74
-116,-840,14892,-445,160,-71
-112,-768,14996,-452,152,-75
-244,-808,14880,-397,147,-85
-132,-744,14796,-415,170,-78
-164,-736,14896,-438,150,-89
-148,-836,15000,-419,162,-86
-92,-788,14928,-419,147,-89
-148,-780,14704,-425,130,-89
-136,-856,14948,-424,138,-82
-40,-820,14956,-418,144,-62
-108,-780,14920,-419,140,-91
-176,-784,14792,-417,131,-55
-36,-808,14796,-426,158,-74
-148,-808,14780,-420,172,-80
-256,-832,14748,-426,162,-63
-120,-792,14776,-420,166,-107
-140,-764,14816,-424,139,-68
-216,-796,14720,-437,144,-89
-228,-860,14876,-440,154,-97
-100,-820,14768,-439,125,-84
-68,-812,14776,-433,163,-75
-64,-780,14780,-411,167,-88
-132,-836,14776,-430,147,-97
-140,-820,14932,-429,138,-83
-64,-756,14696,-429,161,-89
-200,-840,14856,-408,166,-87
-120,-768,14816,-405,165,-80
-208,-788,14800,-433,162,-89
-160,-792,14952,-418,156,-98
-244,-824,14936,-429,151,-95
-88,-792,14716,-426,128,-81
-152,-856,14932,-411,140,-89
-148,-800,14764,-442,140,-65
-56,-820,14752,-423,182,-90
-136,-840,14820,-417,176,-71
-176,-864,14916,-411,187,-77
-208,-812,14872,-429,169,-55
-164,-816,14904,-422,172,-61
-200,-760,14828,-419,149,-65
-120,-824,14784,-428,122,-86
-140,-788,14728,-447,151,-92
-140,-904,14868,-417,149,-86
-68,-792,14916,-424,154,-64
-136,-828,14776,-419,137,-79
-140,-776,14920,-426,132,-83
-124,-868,14836,-430,173,-83
-176,-776,14768,-425,162,-76
-176,-772,14816,-424,179,-96
-32,-760,14776,-430,126,-87
-164,-808,14884,-441,153,-73
-224,-784,14820,-415,150,-81
-196,-800,14916,-423,169,-77
-188,-800,14872,-434,161,-68
-268,-780,14836,-424,149,-84
-108,-724,14916,-412,148,-109
-200,-864,14784,-408,152,-107
-112,-852,14828,-438,147,-79
-152,-764,14864,-434,143,-73
-84,-736,15000,-433,161,-61
-128,-764,14812,-420,153,-75
-224,-764,14904,-438,179,-98
-120,-856,14824,-427,137,-63
-68,-772,14916,-433,159,-60
-104,-904,14876,-428,144,-88
-96,-840,14800,-427,162,-79
-96,-840,14720,-427,155,-75
-104,-812,14900,-454,162,-91
-144,-780,15088,-416,166,-91
-248,-804,14844,-437,156,-55
-212,-740,14824,-437,151,-109
-152,-744,14756,-424,152,-58
-188,-748,14896,-420,122,-93
-136,-812,14844,-424,133,-74
-92,-864,14736,-434,151,-86
-116,-860,14804,-432,149,-77
-104,-900,14848,-416,138,-86
-144,-808,14952,-422,108,-82
-156,-796,14680,-427,158,-84
-92,-776,15000,-433,145,-70
-228,-812,14848,-414,177,-84
-156,-776,14824,-418,132,-77
-168,-816,14848,-426,159,-75
-224,-876,14844,-418,147,-87
-172,-764,14880,-437,191,-67
-184,-776,14892,-428,139,-88
-56,-808,14836,-441,151,-86
-96,-728,14892,-454,165,-60
-108,-860,14788,-430,142,-63
-88,-936,14832,-425,135,-96
-180,-840,14768,-428,152,-71
-192,-776,14748,-431,171,-73
-172,-856,15044,-441,134,-82
-152,-836,14932,-414,186,-86
-252,-828,14956,-433,126,-75
-224,-716,15024,-412,149,-81
-92,-792,14888,-439,155,-72
-108,-912,14860,-432,148,-78
-60,-808,14852,-415,144,-97
-64,-856,14872,-433,173,-67
-92,-820,14808,-433,163,-66
-168,-788,14944,-425,132,-92
-196,-872,14812,-433,134,-78
-196,-848,14860,-428,182,-76
-164,-804,14836,-428,168,-98
-212,-776,14904,-419,126,-79
-144,-868,14720,-430,121,-62
-240,-784,14844,-436,164,-87
-240,-712,14720,-431,131,-81
-92,-744,14968,-418,142,-102
-180,-824,14908,-434,151,-72
-152,-808,14920,-433,162,-92
-88,-812,14724,-413,153,-79
-256,-836,14976,-428,140,-87
-184,-764,14728,-433,143,-89
-120,-788,14772,-431,155,-90
-140,-712,14800,-421,136,-77
-212,-764,14928,-406,171,-85
-192,-776,14916,-415,152,-73
-148,-740,14832,-411,162,-58
-104,-756,14904,-441,158,-94
-48,-860,14844,-436,118,-64
-76,-892,14812,-428,157,-102
-104,-732,14856,-437,141,-79
-236,-828,14804,-414,143,-101
-156,-840,14832,-437,157,-74
-156,-892,14928,-420,159,-82
-96,-720,14832,-423,174,-89
-144,-852,14796,-423,158,-78
-144,-788,14840,-457,157,-71
-116,-780,14888,-435,154,-82
-92,-840,14888,-413,151,-68
-144,-828,14920,-442,165,-86
-108,-844,14824,-429,140,-60
-152,-752,14796,-423,151,-54
-168,-832,14792,-408,159,-97
-196,-824,14924,-436,144,-56
-184,-720,14960,-431,142,-90
-216,-696,14876,-425,148,-80
-192,-784,14776,-439,161,-92
-184,-764,14968,-434,140,-84
-256,-868,14880,-425,134,-75
-164,-720,14828,-423,148,-71
-44,-720,14972,-419,183,-61
-132,-808,14876,-418,159,-95
-236,-800,14860,-427,173,-98
-240,-684,14880,-435,145,-91
-156,-824,14788,-411,161,-100
-188,-828,14900,-430,141,-96
-208,-800,14960,-422,133,-72
-208,-820,14764,-422,150,-89
-220,-780,14868,-425,162,-107
-164,-900,14960,-426,150,-87
-144,-824,14772,-431,152,-89
-200,-844,14808,-420,133,-75
-92,-796,14836,-436,139,-86
-256,-856,14832,-448,138,-72
-92,-860,14764,-445,168,-90
-152,-792,14828,-426,132,-81
-280,-700,14984,-426,155,-79
-112,-808,14884,-427,131,-81
-204,-872,14812,-437,178,-57
-216,-720,14864,-425,148,-59
-156,-816,15004,-425,134,-89
-220,-800,14832,-427,143,-81
-148,-772,14868,-421,144,-72
-136,-860,14856,-436,162,-84
-120,-796,14820,-419,135,-81
-56,-764,14824,-422,156,-86
-228,-860,14828,-424,156,-80
-176,-788,14740,-439,139,-79
-92,-788,14844,-426,108,-65
-112,-800,14808,-416,169,-57
-152,-800,14940,-432,156,-78
-200,-856,14764,-450,140,-49
-164,-824,14896,-428,123,-65
-164,-844,14696,-423,146,-67
-208,-884,14836,-447,136,-98
-100,-860,14832,-425,141,-90
-248,-720,14920,-420,142,-83
-168,-804,14812,-419,137,-73
-176,-768,14784,-422,145,-84
-184,-796,14936,-420,134,-82
-136,-768,15020,-422,141,-74
-156,-696,14728,-437,140,-88
-160,-768,14832,-412,155,-82
-44,-784,14984,-425,164,-88
-184,-768,14796,-427,145,-68
-104,-788,14808,-418,148,-97
-144,-780,14948,-424,161,-92
-180,-768,14920,-434,126,-113
-132,-788,14968,-426,158,-91
-148,-856,14900,-420,142,-79
-268,-876,14836,-427,138,-84
-172,-752,14988,-413,141,-78
-240,-808,14692,-423,145,-71
-72,-824,14804,-421,164,-87
-180,-728,14816,-438,163,-84
-124,-864,14996,-440,153,-78
-180,-792,14808,-416,156,-80
-144,-756,14832,-424,165,-73
-104,-808,14792,-433,134,-70
-180,-800,14920,-426,153,-78
-168,-780,14948,-418,144,-67
-160,-848,14804,-436,140,-68
-252,-796,15016,-417,114,-90
-164,-752,14784,-435,138,-89
-216,-712,14884,-413,152,-79
-248,-752,14836,-434,156,-108
-280,-824,14868,-422,126,-62
-192,-804,14940,-423,128,-94
-200,-920,14820,-432,130,-70
-132,-816,14824,-417,161,-106
-120,-796,14960,-436,128,-79
-124,-784,14880,-439,161,-70
-72,-724,14884,-411,153,-83
-180,-792,14800,-434,160,-111
-16,-856,14924,-442,165,-81
-216,-816,14928,-428,167,-73
-232,-856,14996,-423,147,-64
-200,-768,14808,-425,145,-91
-132,-856,14832,-421,175,-97
-124,-872,14912,-435,147,-78
-212,-756,14936,-416,158,-79
-160,-780,15036,-428,139,-77
-224,-820,14944,-445,134,-81
-220,-800,15004,-443,139,-96
-188,-768,14916,-433,146,-86
-196,-760,14956,-421,134,-87
-164,-820,14884,-436,145,-97
-104,-820,14724,-433,150,-72
-176,-740,14832,-432,150,-80
-212,-856,14964,-418,156,-67
-56,-716,14924,-433,147,-62
-124,-776,14868,-425,131,-76
-208,-760,14932,-434,139,-80
-104,-796,14920,-416,135,-76
-240,-828,14800,-407,129,-105
-192,-884,14896,-432,147,-74
-36,-836,14924,-429,149,-82
-104,-804,14800,-437,134,-89
-216,-856,14864,-426,148,-66
-164,-776,14860,-454,153,-74
-68,-804,14716,-420,144,-85
-164,-756,14884,-418,131,-54
-128,-828,14784,-437,173,-89
-176,-800,14932,-431,153,-65
-128,-848,14756,-419,171,-104
-144,-828,14856,-430,153,-110
-152,-776,14816,-432,146,-85
-228,-792,14988,-435,139,-87
-252,-704,14840,-427,135,-90
-128,-808,14796,-432,151,-62
-284,-836,14832,-419,140,-67
-144,-760,14748,-427,140,-97
-112,-916,14912,-432,144,-74
-180,-780,14996,-428,148,-73
-208,-760,14864,-427,129,-84
-96,-752,14892,-431,151,-72
-96,-860,14872,-417,153,-77
-104,-828,14792,-410,128,-84
-136,-828,14924,-422,175,-75
-304,-784,14844,-444,138,-81
-72,-824,14920,-425,151,-66
-92,-768,14952,-415,127,-94
-220,-728,14832,-424,140,-85
-200,-848,14760,-434,180,-82
-100,-748,14912,-422,128,-102
-132,-900,14892,-413,145,-62
-272,-800,14876,-435,149,-84
-180,-760,14776,-431,125,-74
-172,-836,14808,-424,166,-82
-196,-812,14900,-417,143,-99
-148,-852,14808,-431,143,-93
-168,-780,14812,-428,148,-56
-196,-824,14828,-430,138,-79
-244,-756,15008,-444,152,-77
-140,-740,14892,-432,145,-74
-184,-860,14836,-436,139,-83
-200,-728,14936,-433,164,-80
-140,-804,14808,-426,157,-106
-132,-788,14972,-423,151,-78
-152,-832,14848,-443,127,-92
-140,-744,14892,-422,141,-69
-156,-796,14992,-423,154,-70
-96,-780,14896,-414,175,-87
-124,-744,14796,-408,162,-75
-208,-732,14892,-420,149,-67
-188,-896,14832,-433,168,-81
-132,-780,14828,-422,139,-81
-208,-792,14840,-421,165,-90
-156,-820,14880,-431,164,-64
-140,-860,14848,-428,126,-62
-176,-852,14824,-426,162,-95
-144,-800,14700,-440,160,-69
-236,-772,14872,-419,156,-55
-128,-884,14888,-430,135,-95
-120,-744,15044,-433,178,-73
-212,-816,14888,-436,153,-52
-188,-740,14876,-442,147,-98
-236,-744,14904,-406,180,-85
-136,-792,14896,-434,144,-100
-172,-904,14932,-421,149,-71
-152,-840,14836,-433,136,-80
-212,-720,14884,-404,117,-95
-152,-860,14828,-427,159,-77
-32,-800,14860,-414,142,-72
-144,-868,14844,-439,145,-68
-208,-824,14892,-424,136,-73
-224,-792,14820,-440,146,-105
-160,-848,14768,-440,114,-78
-208,-792,14896,-411,169,-83
-196,-868,14724,-453,162,-66
-172,-876,14824,-415,179,-90
-164,-824,14856,-424,142,-95
-160,-764,14872,-427,152,-76
-148,-872,14852,-449,146,-82
-144,-880,14832,-424,150,-78
-188,-732,14820,-441,183,-90
-68,-780,14852,-427,147,-69
-172,-848,14932,-423,133,-82
-208,-896,14812,-434,172,-78
-140,-764,14772,-447,115,-85
-144,-836,14908,-429,142,-93
-196,-880,14856,-409,150,-82
-180,-884,14796,-433,135,-84
-132,-816,14872,-433,172,-77
-152,-772,14760,-421,159,-97
-100,-828,14960,-423,151,-94
-104,-852,14724,-437,144,-96
-116,-824,14840,-424,126,-71
-228,-852,14892,-412,153,-88
-156,-776,14840,-444,146,-90
-152,-732,14908,-439,133,-91
-252,-800,14864,-418,149,-89
-124,-752,14828,-418,158,-115
-112,-752,14888,-413,143,-89
-308,-812,14872,-462,126,-72
-200,-832,14904,-418,169,-66
-252,-788,14796,-429,178,-63
-184,-804,14880,-411,141,-65
-24,-804,14864,-434,143,-78
-136,-856,14864,-434,157,-84
-192,-884,14916,-440,123,-81
-156,-776,14872,-424,130,-91
-112,-860,14888,-424,138,-70
-212,-800,14984,-432,126,-81
-188,-788,14904,-434,167,-91
-192,-848,14808,-425,143,-80
-172,-876,14944,-456,134,-75
-184,-900,14932,-426,144,-97
-212,-792,14868,-418,127,-82
-304,-848,14856,-418,151,-85
-152,-868,14788,-424,148,-88
-264,-796,14832,-444,147,-70
-200,-728,14768,-422,143,-62
-216,-836,14884,-426,146,-65
-224,-784,14804,-422,147,-96
-116,-852,14780,-426,146,-71
-176,-812,14792,-429,154,-76
-216,-788,14828,-427,154,-90
-260,-844,14876,-421,162,-70
-188,-852,14784,-437,163,-79
-148,-884,14920,-431,142,-48
-116,-940,14844,-436,155,-75
-196,-920,14860,-427,147,-85
-132,-796,14952,-423,122,-91
-148,-820,14884,-427,132,-59
-188,-796,14844,-427,137,-77
-72,-944,14660,-423,129,-89
-156,-788,14764,-414,143,-90
-172,-896,14880,-444,136,-84
-160,-776,15052,-427,138,-84
-200,-892,14928,-420,167,-101
-132,-784,14916,-424,143,-96
-136,-796,14836,-446,152,-74
-172,-780,14900,-412,160,-79
-64,-884,14832,-432,141,-82
-164,-768,14940,-426,155,-84
-220,-804,14776,-426,140,-85
-132,-788,14812,-430,141,-65
-252,-828,14952,-447,148,-68
-192,-864,14968,-417,138,-86
-184,-768,14800,-426,138,-78
-64,-824,14804,-434,125,-79
-104,-720,14884,-429,156,-69
-132,-852,14884,-433,165,-58
-292,-812,14820,-439,163,-84
-208,-788,14924,-420,144,-78
-220,-868,14796,-430,162,-72
-168,-716,14832,-404,148,-85
-136,-800,14844,-434,156,-71
-216,-864,14880,-428,121,-64
-360,-768,14900,-433,149,-78
-72,-784,14864,-423,169,-90
-108,-812,14928,-414,147,-62
-152,-824,14964,-441,156,-72
-272,-764,14800,-431,158,-86
-172,-892,14972,-412,146,-65
-88,-832,14732,-444,138,-82
-132,-836,14784,-408,118,-92
-120,-768,14732,-437,152,-84
-196,-804,14884,-405,146,-82
-116,-872,14928,-450,133,-90
-232,-736,14788,-434,136,-88
-112,-868,14744,-423,149,-96
-172,-776,14928,-423,142,-64
-36,-844,14892,-420,144,-90
-128,-796,14856,-428,172,-83
-88,-876,14868,-418,182,-77
-196,-788,14788,-431,158,-70
-184,-732,14776,-434,146,-71
-260,-772,14836,-439,175,-75
-152,-824,14868,-432,137,-88
-112,-860,14776,-425,158,-72
-56,-772,14828,-422,156,-91
-200,-768,14860,-419,122,-68
-36,-884,14888,-433,128,-64
-180,-804,14896,-413,157,-91
-128,-816,14948,-433,160,-86
-128,-848,14736,-429,141,-107
-112,-836,14912,-423,134,-77
-88,-832,14928,-438,121,-78
-160,-756,14952,-425,178,-90
-180,-880,14860,-436,137,-98
-236,-808,14860,-422,163,-124
-132,-856,14776,-419,147,-49
-84,-860,14872,-426,136,-85
-180,-808,15032,-439,157,-77
-116,-800,14932,-423,157,-102
-240,-780,14904,-429,136,-80
-140,-776,14892,-441,158,-85
-240,-856,14792,-424,155,-82
-168,-748,14888,-433,162,-77
-216,-808,14880,-424,156,-87
-140,-860,14896,-434,153,-109
-124,-776,14860,-428,136,-85
-192,-812,14784,-430,164,-73
-188,-872,14956,-416,159,-97
-120,-780,14908,-423,162,-96
-132,-700,14952,-432,128,-77
-184,-892,14856,-422,147,-70
-172,-812,14836,-423,119,-85
-152,-728,14812,-443,140,-74
-200,-768,14820,-419,126,-90
-192,-840,14832,-435,154,-81
-192,-848,14772,-411,141,-99
-312,-756,14964,-439,154,-105
-136,-888,14864,-431,155,-85
-144,-764,14800,-400,153,-102
-108,-832,14888,-425,167,-76
-144,-792,14988,-424,165,-108
-84,-784,14792,-435,184,-95
-124,-808,14924,-441,168,-102
-168,-776,14788,-423,143,-88
-140,-736,14864,-432,135,-81
-228,-828,14896,-422,159,-73
-168,-840,14928,-429,137,-72
-160,-856,14872,-419,160,-90
-120,-864,14796,-428,139,-81
-120,-788,15020,-432,143,-59
-52,-820,14904,-414,136,-76
-28,-800,14868,-420,168,-88
-220,-704,14932,-426,182,-80
-120,-756,14872,-426,143,-74
-152,-860,14872,-426,147,-72
-240,-876,14860,-426,151,-90
-52,-872,14844,-440,160,-101
-168,-876,14768,-425,154,-70
-172,-828,14868,-441,176,-81
-192,-856,14884,-421,160,-98
-240,-900,14944,-443,150,-73
-144,-780,14824,-430,142,-90
-108,-832,14824,-428,140,-70
-72,-792,15028,-429,173,-80
-136,-872,14896,-425,131,-88
-220,-844,14840,-448,165,-86
-152,-876,14896,-428,145,-85
-212,-812,15020,-446,156,-90
-220,-892,14904,-434,137,-94
-144,-808,14888,-415,138,-89
-152,-748,14808,-426,165,-66
-80,-748,14740,-426,157,-93
-192,-768,14872,-435,131,-65
-108,-800,14748,-424,136,-64
-212,-728,14840,-427,141,-71
-140,-848,14744,-419,134,-91
-80,-796,14868,-422,143,-83
-180,-768,15104,-420,155,-78
-240,-812,14928,-420,140,-98
-164,-756,14796,-445,137,-85
-248,-776,15008,-434,122,-77
-140,-844,14956,-411,140,-93
-124,-840,14768,-423,141,-88
-172,-740,14924,-434,138,-78
-184,-772,14904,-434,151,-86
-152,-808,14960,-436,116,-86
-204,-772,14888,-436,132,-83
-184,-776,14960,-437,143,-64
-128,-848,14868,-415,146,-68
-172,-736,14752,-420,159,-71
-144,-920,14872,-436,186,-86
-216,-808,14880,-424,147,-77
-204,-660,14920,-422,185,-87
-108,-696,14868,-406,154,-82
-56,-844,14844,-436,146,-81
-76,-784,14884,-430,154,-76
-196,-812,14984,-437,142,-94
-88,-716,14796,-427,143,-69
-216,-916,14956,-411,150,-96
-260,-848,14892,-424,183,-74
-80,-772,14764,-438,162,-84
-68,-868,14912,-432,128,-68
-100,-876,14768,-431,140,-80
-24,-876,14684,-431,142,-80
-176,-796,14836,-403,151,-80
-148,-792,14884,-417,149,-76
-64,-852,15012,-425,162,-76
-180,-796,14908,-431,141,-78
-132,-804,14968,-422,153,-86
-176,-824,14856,-423,126,-101
-132,-764,14868,-438,164,-82
-180,-792,14900,-429,155,-83
-176,-804,14980,-428,128,-94
-196,-828,14932,-435,151,-82
-172,-736,14760,-425,158,-57
-148,-884,14836,-414,154,-98
-152,-768,14872,-418,132,-101
-204,-872,14880,-421,143,-73
-248,-840,14920,-447,169,-74
-264,-804,15052,-420,154,-67
-188,-816,14852,-406,145,-87
-252,-944,14940,-414,170,-113
-156,-804,14896,-432,151,-79
-164,-828,14816,-404,145,-94
-100,-804,14896,-441,133,-55
-144,-824,14864,-413,160,-79
-160,-764,14844,-420,140,-98
-164,-780,14796,-425,169,-80
-184,-752,14940,-420,139,-75
-212,-740,14816,-433,141,-88
-144,-768,14688,-406,155,-77
-176,-804,14804,-432,145,-69
-132,-760,14856,-432,154,-80
-148,-792,14940,-430,163,-75
-264,-756,14980,-422,132,-72
-136,-780,14848,-436,143,-71
-168,-792,14844,-423,160,-90
-184,-848,14844,-431,146,-65
-148,-720,14824,-406,156,-76
-156,-768,14900,-430,183,-57
-52,-768,14960,-413,150,-78
-224,-844,14980,-420,126,-85
-180,-796,14760,-436,141,-82
-124,-828,14668,-432,137,-64
-84,-776,14924,-435,159,-99
-264,-816,14932,-431,157,-80
-32,-764,14748,-433,128,-92
-176,-860,14892,-429,130,-103
-160,-816,15056,-428,142,-63
-120,-776,14872,-425,156,-67
-136,-736,14816,-413,141,-72
-100,-828,15040,-429,144,-99
-136,-836,14784,-418,147,-91
-208,-804,14888,-427,174,-61
-152,-856,14792,-422,134,-86
-192,-864,14888,-441,143,-74
-228,-744,14856,-426,144,-77
-124,-820,15008,-431,173,-61
-232,-780,14896,-422,147,-74
-156,-868,14812,-421,134,-69
-124,-800,14760,-432,160,-49
-12,-780,14824,-436,168,-71
-288,-800,14796,-423,148,-80
-124,-748,14724,-420,131,-60
-204,-816,14808,-430,128,-79
-196,-780,14956,-414,171,-96
-180,-852,14852,-425,176,-84
-188,-792,14872,-414,139,-81
-160,-872,14912,-430,134,-66
-160,-916,14764,-423,144,-82
-172,-756,14892,-420,150,-65
-188,-820,14840,-426,148,-99
-136,-832,14808,-434,162,-78
-76,-876,14880,-437,160,-94
-120,-812,14820,-434,155,-86
-176,-812,14868,-424,135,-85
-96,-856,14888,-431,151,-77
-168,-780,14812,-418,173,-78
-212,-892,14908,-425,154,-75
-200,-688,14792,-410,156,-71
-132,-856,14856,-412,156,-75
-180,-800,14924,-416,125,-82
-172,-828,14932,-437,156,-78
-132,-808,14908,-439,128,-69
-164,-728,14888,-435,148,-98
-172,-836,14816,-414,142,-74
-128,-772,14928,-428,154,-90
-104,-756,14820,-436,163,-85
-196,-824,14936,-434,139,-71
-44,-804,15004,-412,153,-56
-172,-876,14940,-427,162,-97
-220,-832,14888,-428,158,-53
-236,-780,14692,-429,154,-83
-188,-868,14924,-420,155,-75
-248,-740,15004,-436,156,-94
-208,-772,14888,-423,149,-94
-180,-852,14856,-429,156,-65
-188,-752,14940,-431,146,-73
-92,-848,14932,-440,164,-83
-208,-836,14868,-431,151,-84
-140,-924,14860,-443,158,-83
-144,-784,15024,-422,121,-76
-100,-864,14864,-421,129,-103
-148,-800,14936,-430,146,-95
-260,-808,14836,-426,136,-91
-188,-868,14872,-414,157,-53
-196,-716,14912,-432,154,-59
-88,-764,14960,-423,132,-75
-68,-788,14968,-433,167,-77
-132,-712,15012,-418,158,-67
-212,-816,14880,-419,173,-59
-220,-748,14928,-435,137,-67
-128,-872,14776,-423,141,-72
-140,-816,14872,-434,163,-77
-136,-884,14792,-422,158,-91
-176,-752,14840,-444,137,-82
-228,-772,14832,-411,148,-76
-108,-848,14948,-425,147,-81
-280,-908,14852,-419,142,-97
-252,-788,14780,-430,121,-103
-196,-756,14904,-439,142,-61
-196,-828,14816,-423,153,-66
-120,-872,14808,-421,156,-74
-120,-812,14900,-417,159,-71
-188,-772,14860,-423,134,-82
-240,-820,14904,-419,141,-88
-184,-816,14856,-432,172,-66
-152,-816,14880,-433,157,-89
-224,-868,14696,-426,140,-85
-64,-864,14900,-440,134,-76
-200,-764,14844,-425,152,-89
-216,-804,14812,-425,159,-68
-180,-848,15032,-417,143,-79
-164,-828,14896,-431,160,-80
-200,-792,14944,-412,172,-86
-172,-788,14772,-424,125,-88
-88,-820,14972,-421,139,-96
-200,-816,14664,-415,135,-75
-124,-816,14820,-429,137,-95
-104,-728,14868,-424,140,-93
-68,-764,15052,-435,166,-64
-164,-772,14800,-426,140,-67
-156,-868,14848,-437,170,-65
-132,-760,14880,-446,152,-91
-96,-776,14960,-425,133,-80
-196,-908,14736,-425,159,-81
-136,-872,14760,-432,122,-83
-196,-816,14792,-433,114,-67
-132,-788,14916,-407,153,-81
-96,-772,14680,-428,130,-80
-108,-864,14832,-437,149,-90
-152,-836,14824,-433,163,-103
-132,-724,14776,-423,134,-70
-180,-748,14884,-424,149,-91
-144,-896,14880,-426,156,-73
-120,-804,14648,-423,128,-70
-160,-816,14800,-419,159,-64
-252,-828,14784,-442,167,-92
-120,-812,15004,-420,143,-81
-56,-792,14828,-446,157,-89
-200,-816,14860,-419,126,-86
-172,-804,14888,-433,151,-111
-60,-816,14920,-423,148,-77
-112,-828,14932,-445,144,-80
-288,-808,14764,-425,147,-103
-140,-776,14816,-414,167,-76
-120,-860,14768,-431,143,-75
-176,-752,14856,-430,135,-81
-200,-764,14932,-425,133,-80
-188,-756,14768,-423,154,-82
-176,-752,14808,-421,144,-78
-204,-816,14868,-419,145,-78
-216,-756,14916,-419,133,-60
-176,-820,14856,-422,131,-72
-208,-800,15028,-412,165,-73
-212,-840,14900,-426,183,-76
-188,-756,14804,-424,165,-84
-156,-816,14832,-419,113,-66
-184,-840,14960,-427,159,-83
-100,-848,14804,-425,126,-64
-204,-864,15016,-423,144,-78
-248,-880,14692,-431,129,-74
-124,-840,14696,-425,154,-59
-224,-768,14932,-407,151,-79
-112,-808,14824,-422,157,-90
-68,-760,14800,-414,150,-72
-168,-768,14816,-419,167,-79
-184,-848,14784,-420,172,-75
-80,-828,14952,-428,138,-82
-168,-928,14880,-409,166,-94
-212,-852,14868,-417,172,-85
-120,-788,14912,-430,162,-60
-100,-808,14948,-442,159,-78
-204,-840,14824,-435,165,-97
-244,-824,14772,-432,173,-54
-192,-744,14904,-413,160,-90
-212,-840,14904,-428,135,-73
-156,-892,14800,-414,159,-94
-164,-844,14944,-442,136,-91
-144,-776,14872,-423,142,-76
-100,-840,14768,-424,156,-103
-116,-840,14780,-431,161,-97
-188,-768,14920,-422,124,-89
-120,-816,14928,-424,138,-87
-232,-820,14824,-434,150,-84
-188,-844,14724,-438,145,-75
-120,-780,14808,-412,168,-86
-128,-812,14696,-434,152,-79
-152,-856,14744,-423,170,-75
-176,-840,14976,-435,148,-90
-200,-772,14868,-414,152,-97
-108,-808,14840,-424,156,-88
-48,-832,14860,-439,149,-83
-120,-808,14888,-426,140,-57
-88,-728,14896,-418,159,-61
-72,-804,14732,-420,157,-97
-120,-788,14808,-416,123,-71
-100,-764,14820,-420,150,-117
-100,-804,14784,-438,145,-79
-188,-868,14844,-438,157,-76
-64,-776,14828,-435,148,-75
-120,-792,14744,-428,119,-48
-292,-860,14924,-417,147,-67
-132,-820,14872,-434,139,-77
-144,-860,14856,-429,148,-91
-36,-820,14808,-430,149,-69
-132,-760,14912,-415,138,-71
-156,-928,14900,-420,164,-65
-180,-768,15016,-440,128,-88
-104,-800,14988,-421,130,-80
-164,-840,14864,-423,161,-75
-96,-732,14844,-411,139,-68
-120,-740,14904,-423,141,-80
-156,-688,14896,-415,148,-91
-120,-788,14884,-422,149,-91
-152,-752,14848,-428,140,-80
-172,-900,14696,-425,138,-73
-76,-636,14924,-431,149,-80
-140,-852,14792,-436,146,-78
-244,-828,15024,-414,122,-86
-160,-820,14836,-424,173,-105
-196,-776,14888,-432,133,-77
-208,-796,14776,-424,146,-72
-116,-868,14872,-415,174,-68
-200,-840,14700,-439,162,-76
-176,-824,14728,-435,160,-87
-124,-728,14940,-443,165,-76
-144,-884,14816,-422,156,-93
-188,-888,15140,-432,146,-82
-296,-804,14908,-399,183,-92
-252,-868,14772,-460,140,-88
-84,-808,14748,-416,123,-91
-260,-756,14964,-445,141,-100
-228,-708,14860,-439,170,-52
360,1208,14808,-2536,1010,5521
3972,5332,14908,-4637,-47,13428
3984,4712,15420,-3909,-348,17034
2696,844,14828,-2915,-81,21839
-4528,-7236,14992,-2390,-168,23219
-6208,-14408,13432,-2900,2579,1102
-1208,1068,14624,-790,786,1204
-812,896,15292,-1707,1776,3277
-556,-2000,14632,-1531,1062,2953
-676,-1528,15212,-1903,1416,2519
248,-1804,14756,-2217,1335,3247
192,-528,14688,-2467,849,3608
2424,996,14976,-1953,1054,5434
1052,2344,15204,-2255,-132,7492
192,436,15448,-3029,-1692,9151
-32,-2080,15660,-3819,-2531,10344
884,-3376,14212,-3839,-2211,8545
1760,-4120,15568,-3624,-1515,6420
1084,-2096,17600,-3959,-2897,4143
952,-1132,18328,-5150,-5391,3202
500,-1768,18504,-5577,-10182,3144
812,-2776,18164,-5047,-14864,3330
2104,-3912,17608,-4865,-20129,3309
2408,-5956,17332,-5220,-24410,681
4184,-4628,14420,-6576,-25261,-4291
2532,-2180,12496,-8236,-21875,-7055
812,-732,11712,-8318,-17866,-5751
1376,-4,11932,-6523,-14951,-1763
2780,-976,13180,-5719,-12126,577
3192,-1764,15140,-7064,-9687,2162
3792,-2888,16308,-8858,-9181,3136
4260,-3920,15704,-8797,-11876,3389
3980,-5384,15152,-7682,-15494,1545
4728,-4384,14584,-5829,-16379,-686
4444,-3180,14616,-4292,-14752,-949
4396,-2848,14872,-3736,-12455,-693
4676,-3052,14980,-3562,-10872,-291
6116,-3296,14588,-2510,-10994,322
6644,-3204,13612,-294,-10455,1647
4712,-2604,13868,894,-7710,2902
2000,-2616,14692,109,-5804,4411
3796,-3084,15180,-865,-6363,6435
7680,-4604,14516,-48,-6729,6808
6356,-4724,14728,929,-9960,5510
7684,-5244,13112,1517,-16460,3607
8836,-5340,11460,685,-16640,-493
5488,-2676,12032,-1061,-13538,-2559
3244,-2296,12992,-2391,-12168,-1120
4520,-2692,14412,-3270,-10394,759
6468,-3564,15160,-3405,-11737,1842
8960,-4404,14560,-1843,-15929,1594
9768,-3892,13536,-314,-17708,484
9708,-4272,12100,680,-14729,25
8156,-4888,10888,2012,-9308,-1586
6652,-3320,10220,2256,-6227,-1658
6740,-2664,9980,346,-5832,48
8344,-3192,9800,-1071,-4006,1042
9456,-3760,10644,-2015,-1701,1657
9104,-3512,10692,-2338,-5196,2161
11064,-3748,10492,-2994,-7681,2049
10976,-4168,11136,-4195,-6737,2026
9584,-4456,11088,-4938,-6245,2109
9216,-4760,11168,-4532,-4871,2383
9592,-5072,10960,-3828,-3801,1878
10204,-5116,11780,-3779,-1860,1718
11072,-5360,12752,-4217,870,1495
10472,-5708,13672,-3662,960,1369
10592,-4900,13412,-1945,-6905,1291
11784,-5728,11276,589,-14007,-219
11380,-5188,9724,362,-14196,-1769
9380,-4836,9420,-1631,-14676,-1699
9660,-3996,9028,-2824,-13113,-745
9988,-4700,9392,-2780,-8496,243
9704,-4500,10160,-2232,-7292,1101
10684,-4276,10032,-2024,-7794,1838
11744,-4576,10388,-2415,-7072,1933
12352,-5328,11128,-2264,-5318,1658
11836,-5352,10676,-309,-8460,1222
11340,-4396,9392,336,-11568,1170
10880,-4548,9092,-1203,-12137,1928
10804,-4480,9208,-2161,-11962,2230
11416,-4856,9076,-2070,-10312,2497
12056,-4768,9660,-1540,-7853,2632
12048,-4772,10228,-1258,-6461,2868
12372,-5080,10040,-293,-7189,2719
13204,-5204,9288,987,-6582,2285
12492,-4860,8488,2785,-7673,2240
12008,-4580,7072,3486,-9462,1842
12372,-4652,6244,3306,-8050,1111
12216,-4288,6548,2043,-5454,1344
13932,-5516,7120,2408,-2098,1687
14812,-5768,8116,2628,786,1821
14496,-6216,8068,3414,-276,2094
13732,-6052,7328,4125,-5039,2026
13416,-5244,6452,2866,-9135,1582
12736,-4836,6924,24,-10343,2171
11832,-4688,8868,-2428,-10347,3265
11612,-4500,10288,-3357,-10271,4565
14148,-6032,9304,-1417,-9725,4968
17704,-7652,6208,4774,-7585,3415
16284,-5896,3828,8673,-4947,649
12992,-3892,3420,5908,-3961,651
12028,-3732,4496,2112,-2912,1459
7592,-4864,10800,2677,-2837,3322
14144,-860,12040,12262,-4555,6079
13644,-7548,6492,10881,5080,3225
11212,-4360,5792,10600,2159,2936
13960,-4620,2892,10009,-1501,2403
13968,-5408,3936,11485,-2540,1625
13640,-5660,7292,12818,-5036,1409
15668,-4188,7880,14572,-4391,1123
14028,-5404,7524,12395,-302,587
14500,-4696,7872,12930,-55,247
14024,-5028,6728,13253,-468,868
13900,-3700,6984,13438,-1860,1077
13372,-3824,6944,13403,-2243,1299
12808,-4188,6712,13661,-2789,985
13968,-4512,7068,14833,-2221,972
14080,-4512,8052,16449,-111,1240
13748,-3820,8420,17748,1283,1211
13380,-3396,8644,18073,2182,1058
13020,-2508,8324,18054,2581,1070
14024,-2956,6628,17836,1566,1116
13376,-2764,7076,19281,1869,650
13036,-3360,8368,20440,1125,-4
13500,-4284,9084,21787,213,804
14268,-2660,8496,21855,-1848,1363
14192,-860,8632,20700,-1793,2016
13600,-1032,8952,19242,-448,2172
12744,-1260,8900,18861,647,1434
12072,-1492,9184,19215,1420,-350
13024,-1324,8360,19900,1857,-1756
13804,-140,9072,20142,2644,-2578
14060,504,8928,19327,3238,-2954
13460,880,9324,17883,3893,-2794
12820,644,9324,17623,3830,-2909
13496,412,9048,18383,3768,-3043
13108,804,9568,19548,4138,-3450
13248,1600,10244,19629,2867,-2937
12596,2432,10372,19435,2014,-3193
13088,1832,8872,19746,3136,-3770
13332,2368,9500,20041,4662,-4946
14004,2920,8964,19697,6131,-5857
13956,2784,9188,19567,6585,-5948
13460,3808,8812,18701,6057,-5396
13608,2888,10828,18768,4792,-5766
13132,2552,13992,24232,4767,-6282
12120,1932,12600,31806,5583,-6956
13580,3344,7708,32653,4415,-4533
16568,4660,10416,32767,6481,-8736
13688,6740,6720,32767,10043,-10717
12392,6540,3000,30425,10076,-12043
9528,6068,2824,24570,8239,-10284
6796,6476,3420,19465,5672,-6499
8164,8888,7040,16466,1985,-2161
10492,8832,10780,18300,116,-71
11832,9536,9848,21181,393,-885
14772,11556,5004,22116,3254,-5647
15488,10352,3396,20445,7030,-10938
13784,7560,2604,17750,9069,-14803
10960,8284,2384,15393,8790,-16257
8016,8476,4504,14510,7332,-14541
7956,9612,5128,15601,6023,-12283
9332,10524,6076,17639,5753,-11233
9824,12356,4904,18404,6179,-11481
8128,14072,3936,15901,6403,-10948
7144,13580,2208,10842,5710,-6909
6232,13148,1352,5637,4426,-2504
5592,12128,4132,1616,3323,1167
9964,9948,7428,1764,1171,1296
11860,11144,7440,6939,1666,-2130
12668,11040,6832,10707,1808,-6189
10168,11176,4844,12021,2672,-8169
7700,12124,2520,12300,2919,-7852
5016,10608,2980,10932,2744,-5453
5320,13256,1504,10076,2646,-3928
7492,13080,1996,9139,3864,-3558
9240,12864,2448,7135,4297,-5387
8448,14192,3224,4701,4239,-6606
6804,14432,6456,5667,3549,-6294
10052,12884,10096,11550,3598,-4603
11016,13744,8624,21425,5093,-3616
6192,13172,4132,24153,3298,-2289
7344,13156,1296,23515,2064,-1739
7912,11888,972,22568,3168,-1931
8460,12276,1128,21886,3223,-1975
7664,14256,1516,22151,2292,-1994
6088,15780,-152,20963,1397,-1271
8860,16712,-212,19109,404,-1292
9932,16804,-1056,15654,126,-1826
9396,16004,-1576,11541,365,-2196
9120,15308,-1756,7592,576,-2394
9344,14364,-2452,2917,419,-1901
9704,13884,-3268,-3621,112,-1092
8700,16232,-1072,-7149,-561,-1378
4364,18116,204,-8084,-1400,-2044
3020,13772,596,-2677,-2453,771
5684,11176,-1784,-938,-3305,3104
-1692,8072,4464,5805,-8301,5399
3720,9580,-940,9452,-9077,5193
4956,12140,1148,8640,-10156,3963
6796,14668,-36,6267,-9330,1208
9324,15908,-2052,6315,-6377,-4147
11596,16532,-2608,7837,-4848,-5973
11184,15840,-3256,8894,-4813,-3220
10044,15452,-3664,10852,-4705,-538
8292,14184,-3760,14981,-6915,1230
7012,14184,-3180,18719,-8515,1701
5876,13612,-2176,19857,-10279,2464
6212,12396,-2784,19239,-12477,4799
1716,12828,792,16513,-12865,2179
9052,14560,-4824,16828,-10979,1917
7120,13096,-3440,11340,-8641,-540
9612,12572,-8092,13307,-7165,-81
7668,12296,-7752,15158,-5643,-1219
6420,10828,-6756,16520,-4785,-1899
5264,10828,-6608,18327,-6292,-1959
4464,12156,-6716,21167,-8293,-1559
6352,14176,-7520,22256,-9110,-3573
7976,15728,-8156,21317,-9323,-6958
7040,15980,-8640,18963,-8234,-8298
5752,13884,-7996,17177,-8459,-6964
4804,12016,-8508,16825,-10035,-3734
4708,9380,-9120,16443,-10998,-1767
6356,9312,-10324,15805,-10894,-306
8936,10216,-11904,14770,-10146,1613
9664,11392,-13208,14951,-9315,5807
6996,11628,-14364,17065,-8131,8764
2540,14288,-12512,18654,-7368,6050
1796,16368,-9888,15109,-7781,143
1792,15336,-9836,7624,-7597,-6491
5740,13068,-12460,3115,-7260,-9138
8716,9068,-15212,3793,-7073,-6786
8356,5732,-15960,7312,-7147,-1873
4784,5008,-15352,11217,-7115,1692
2012,7444,-13464,13550,-7431,2328
892,8276,-12724,13713,-8152,1420
1744,8716,-13388,13080,-8042,344
5016,9408,-14840,13164,-7545,1093
6332,10448,-15580,13600,-6997,3408
8596,12140,-17636,15787,-6526,3454
4416,13596,-14776,12422,-6191,1563
5432,13080,-15268,9240,-4605,-1349
4940,10880,-15576,6605,-3643,-3728
3896,8068,-15768,5400,-3214,-4665
2116,4904,-16020,6530,-3211,-5029
2696,7276,-15296,6752,-3843,-4968
2584,7212,-16152,8009,-4541,-4361
3884,9836,-16368,8480,-4376,-2796
4060,10996,-16740,7309,-3316,-2275
4796,10416,-16680,5812,-2552,-800
4956,9280,-16668,4148,-2254,412
2768,6900,-16512,3523,-2040,59
1148,6072,-16164,4143,-2063,-459
-4,6800,-15276,5215,-2739,-512
876,7536,-15584,5429,-3896,-366
1200,6444,-16440,6839,-4134,1212
2536,7896,-16268,6897,-4211,936
3276,7280,-16684,5369,-5082,-425
2512,6236,-16848,4393,-5470,-1987
2168,4844,-17252,4451,-5687,-2969
2492,5088,-17512,5054,-5217,-3884
3052,6764,-17732,5206,-4740,-3759
3072,8016,-17628,4604,-4401,-3431
2544,8144,-17268,3715,-4241,-2779
1784,7484,-16988,3170,-4191,-2193
1384,5368,-17312,3398,-4012,-2381
544,3184,-17172,4673,-3537,-2313
3580,4544,-19784,7595,-1187,-856
2372,6404,-17960,7656,-1770,1640
3460,8980,-18268,6127,-1390,1209
3064,9344,-17728,4139,-683,-396
2348,8408,-17340,2310,41,-2117
2336,6204,-17288,1675,270,-2251
1304,4880,-17188,1683,258,-2109
-292,4592,-16828,2278,-1,-1444
-480,4892,-16708,3201,-566,285
352,5164,-16980,4096,-1154,1899
1840,5872,-17540,4354,-1128,2163
2400,6596,-17672,3930,-570,1099
2664,6048,-17604,3333,186,-343
2104,5292,-17328,3122,802,-1141
476,5108,-16728,3292,924,-1225
-704,4964,-16576,3803,415,-124
80,4700,-17252,4506,-13,1245
1576,4536,-18192,4769,-137,2171
2496,4396,-18296,4678,177,2217
2600,4240,-18024,4544,456,1799
1516,4892,-17752,4579,549,1096
8,5284,-17272,4631,479,937
560,4776,-17712,4706,387,1176
1388,4196,-18356,4510,407,1213
2220,3856,-18792,3897,620,514
1776,3912,-18328,3534,843,232
1480,3912,-18024,3409,962,211
1176,3720,-17648,3517,901,359
-188,4376,-16924,3917,418,1261
520,3968,-17316,4462,-134,2809
1588,3376,-18148,4578,-374,3281
2496,3048,-18712,4304,-144,2702
3072,2684,-18956,3688,323,1444
2016,3172,-18652,3023,572,135
1612,3172,-18240,2815,433,204
1844,3072,-17972,2928,325,205
1972,2984,-18092,3155,355,128
1912,2768,-17736,3371,339,51
1552,2868,-17760,3462,233,-115
1412,2844,-18212,3547,115,-33
1516,2556,-18540,3647,43,212
1656,2532,-18948,3460,7,230
1892,2508,-18972,2995,50,172
1728,2380,-18672,2589,-19,-10
1796,2320,-18188,2535,7,-44
1520,2192,-18016,2562,54,-64
1596,2300,-18188,2684,101,62
2008,2036,-18636,2544,142,18
3176,1152,-19552,1944,165,-758
2900,1240,-19604,1129,508,-2425
1736,2040,-18704,719,700,-3027
552,2652,-17872,646,537,-2324
212,2760,-18008,823,222,-860
828,1920,-18048,1128,23,439
1660,1828,-18680,1168,-41,696
2388,1836,-18460,953,104,308
2508,1392,-18636,669,293,-475
1968,1488,-18288,519,411,-885
1764,1256,-17892,794,483,-764
1364,1060,-17876,1291,461,-277
736,1788,-17688,1867,433,457
556,2236,-18012,2262,344,1372
1364,2212,-18768,2240,161,1774
1900,1884,-19156,1748,-9,1470
1840,1684,-19216,1021,-34,1146
1824,1588,-19176,303,-17,897
1624,1428,-18684,-142,8,803
1476,1332,-18480,-427,21,861
1268,1064,-18284,-409,29,1147
